"rt","stimulus","response","trial_type","trial_index","time_elapsed","internal_node_id","run_id","condition","recorded_at","source_code_version","ip","user_agent","device","browser","browser_version","platform","platform_version","referer","accept_language","jspsych-survey-multi-choice-response-0","question_order"
"1230","<p>In this experiment, you will see 3 visualizations, each for 10 seconds.</p> <p> You need to remember the data fact <b>highlighted with annotation</b>, and try to recall it.</p>","0","html-button-response","0","1234","0.0-0.0","14","1","2024-06-25 16:35:04","327d8d61a69a55b6203573ad19e3ab64","75.231.233.139","Mozilla/5.0 (Windows NT 10.0; Win64; x64) AppleWebKit/537.36 (KHTML, like Gecko) Chrome/126.0.0.0 Safari/537.36","WebKit","Chrome","126.0.0.0","Windows","10.0","https://zkohudqett.cognition.run/?jspsych-survey-multi-choice-response-0=15+of+the+16+cities+have+less+than+250+acres+of+parkland+per+thousand+inhabitants","es-419,es;q=0.9","15 of the 16 cities have less than 250 acres of parkland per thousand inhabitants",""
"2486","","{""Q0"":""durian""}","survey-multi-choice","1","3723","0.0-1.0","14","1","2024-06-25 16:35:04","327d8d61a69a55b6203573ad19e3ab64","75.231.233.139","Mozilla/5.0 (Windows NT 10.0; Win64; x64) AppleWebKit/537.36 (KHTML, like Gecko) Chrome/126.0.0.0 Safari/537.36","WebKit","Chrome","126.0.0.0","Windows","10.0","https://zkohudqett.cognition.run/?jspsych-survey-multi-choice-response-0=15+of+the+16+cities+have+less+than+250+acres+of+parkland+per+thousand+inhabitants","es-419,es;q=0.9","15 of the 16 cities have less than 250 acres of parkland per thousand inhabitants","[0]"
"1376","<p>Great! You passed the attention check. Now let's begin!</p>","0","html-button-response","2","5105","0.0-2.0","14","1","2024-06-25 16:35:04","327d8d61a69a55b6203573ad19e3ab64","75.231.233.139","Mozilla/5.0 (Windows NT 10.0; Win64; x64) AppleWebKit/537.36 (KHTML, like Gecko) Chrome/126.0.0.0 Safari/537.36","WebKit","Chrome","126.0.0.0","Windows","10.0","https://zkohudqett.cognition.run/?jspsych-survey-multi-choice-response-0=15+of+the+16+cities+have+less+than+250+acres+of+parkland+per+thousand+inhabitants","es-419,es;q=0.9","15 of the 16 cities have less than 250 acres of parkland per thousand inhabitants",""
"null","<img src=""chart68.png"" style=""max-width:80%; margin:10px;"">","null","html-keyboard-response","3","15126","0.0-3.0","14","1","2024-06-25 16:35:04","327d8d61a69a55b6203573ad19e3ab64","75.231.233.139","Mozilla/5.0 (Windows NT 10.0; Win64; x64) AppleWebKit/537.36 (KHTML, like Gecko) Chrome/126.0.0.0 Safari/537.36","WebKit","Chrome","126.0.0.0","Windows","10.0","https://zkohudqett.cognition.run/?jspsych-survey-multi-choice-response-0=15+of+the+16+cities+have+less+than+250+acres+of+parkland+per+thousand+inhabitants","es-419,es;q=0.9","15 of the 16 cities have less than 250 acres of parkland per thousand inhabitants",""
"null","<img src=""Filter-Bar-Bound.png"" style=""max-width:80%; margin:10px;"">","null","html-keyboard-response","4","25137","0.0-4.0","14","1","2024-06-25 16:35:04","327d8d61a69a55b6203573ad19e3ab64","75.231.233.139","Mozilla/5.0 (Windows NT 10.0; Win64; x64) AppleWebKit/537.36 (KHTML, like Gecko) Chrome/126.0.0.0 Safari/537.36","WebKit","Chrome","126.0.0.0","Windows","10.0","https://zkohudqett.cognition.run/?jspsych-survey-multi-choice-response-0=15+of+the+16+cities+have+less+than+250+acres+of+parkland+per+thousand+inhabitants","es-419,es;q=0.9","15 of the 16 cities have less than 250 acres of parkland per thousand inhabitants",""
"null","<img src=""chart506.png"" style=""max-width:80%; margin:10px;"">","null","html-keyboard-response","5","35138","0.0-5.0","14","1","2024-06-25 16:35:04","327d8d61a69a55b6203573ad19e3ab64","75.231.233.139","Mozilla/5.0 (Windows NT 10.0; Win64; x64) AppleWebKit/537.36 (KHTML, like Gecko) Chrome/126.0.0.0 Safari/537.36","WebKit","Chrome","126.0.0.0","Windows","10.0","https://zkohudqett.cognition.run/?jspsych-survey-multi-choice-response-0=15+of+the+16+cities+have+less+than+250+acres+of+parkland+per+thousand+inhabitants","es-419,es;q=0.9","15 of the 16 cities have less than 250 acres of parkland per thousand inhabitants",""
"36145","","{""Q0"":""The number of mobile customers in UK drops below 30 million from 2018 to 2019.""}","survey-multi-choice","6","71289","0.0-6.0","14","1","2024-06-25 16:35:04","327d8d61a69a55b6203573ad19e3ab64","75.231.233.139","Mozilla/5.0 (Windows NT 10.0; Win64; x64) AppleWebKit/537.36 (KHTML, like Gecko) Chrome/126.0.0.0 Safari/537.36","WebKit","Chrome","126.0.0.0","Windows","10.0","https://zkohudqett.cognition.run/?jspsych-survey-multi-choice-response-0=15+of+the+16+cities+have+less+than+250+acres+of+parkland+per+thousand+inhabitants","es-419,es;q=0.9","15 of the 16 cities have less than 250 acres of parkland per thousand inhabitants","[0]"
"null","<img src=""chart275.png"" style=""max-width:80%; margin:10px;"">","null","html-keyboard-response","7","81302","0.0-7.0","14","1","2024-06-25 16:35:04","327d8d61a69a55b6203573ad19e3ab64","75.231.233.139","Mozilla/5.0 (Windows NT 10.0; Win64; x64) AppleWebKit/537.36 (KHTML, like Gecko) Chrome/126.0.0.0 Safari/537.36","WebKit","Chrome","126.0.0.0","Windows","10.0","https://zkohudqett.cognition.run/?jspsych-survey-multi-choice-response-0=15+of+the+16+cities+have+less+than+250+acres+of+parkland+per+thousand+inhabitants","es-419,es;q=0.9","15 of the 16 cities have less than 250 acres of parkland per thousand inhabitants",""
"null","<img src=""Range-Bar-Line.png"" style=""max-width:80%; margin:10px;"">","null","html-keyboard-response","8","91310","0.0-8.0","14","1","2024-06-25 16:35:04","327d8d61a69a55b6203573ad19e3ab64","75.231.233.139","Mozilla/5.0 (Windows NT 10.0; Win64; x64) AppleWebKit/537.36 (KHTML, like Gecko) Chrome/126.0.0.0 Safari/537.36","WebKit","Chrome","126.0.0.0","Windows","10.0","https://zkohudqett.cognition.run/?jspsych-survey-multi-choice-response-0=15+of+the+16+cities+have+less+than+250+acres+of+parkland+per+thousand+inhabitants","es-419,es;q=0.9","15 of the 16 cities have less than 250 acres of parkland per thousand inhabitants",""
"null","<img src=""chart155.png"" style=""max-width:80%; margin:10px;"">","null","html-keyboard-response","9","101314","0.0-9.0","14","1","2024-06-25 16:35:04","327d8d61a69a55b6203573ad19e3ab64","75.231.233.139","Mozilla/5.0 (Windows NT 10.0; Win64; x64) AppleWebKit/537.36 (KHTML, like Gecko) Chrome/126.0.0.0 Safari/537.36","WebKit","Chrome","126.0.0.0","Windows","10.0","https://zkohudqett.cognition.run/?jspsych-survey-multi-choice-response-0=15+of+the+16+cities+have+less+than+250+acres+of+parkland+per+thousand+inhabitants","es-419,es;q=0.9","15 of the 16 cities have less than 250 acres of parkland per thousand inhabitants",""
"75012","","{""Q0"":""Kenya’s population has continued to increase over the years""}","survey-multi-choice","10","176329","0.0-10.0","14","1","2024-06-25 16:35:04","327d8d61a69a55b6203573ad19e3ab64","75.231.233.139","Mozilla/5.0 (Windows NT 10.0; Win64; x64) AppleWebKit/537.36 (KHTML, like Gecko) Chrome/126.0.0.0 Safari/537.36","WebKit","Chrome","126.0.0.0","Windows","10.0","https://zkohudqett.cognition.run/?jspsych-survey-multi-choice-response-0=15+of+the+16+cities+have+less+than+250+acres+of+parkland+per+thousand+inhabitants","es-419,es;q=0.9","15 of the 16 cities have less than 250 acres of parkland per thousand inhabitants","[0]"
"null","<img src=""chart227.png"" style=""max-width:80%; margin:10px;"">","null","html-keyboard-response","11","186342","0.0-11.0","14","1","2024-06-25 16:35:04","327d8d61a69a55b6203573ad19e3ab64","75.231.233.139","Mozilla/5.0 (Windows NT 10.0; Win64; x64) AppleWebKit/537.36 (KHTML, like Gecko) Chrome/126.0.0.0 Safari/537.36","WebKit","Chrome","126.0.0.0","Windows","10.0","https://zkohudqett.cognition.run/?jspsych-survey-multi-choice-response-0=15+of+the+16+cities+have+less+than+250+acres+of+parkland+per+thousand+inhabitants","es-419,es;q=0.9","15 of the 16 cities have less than 250 acres of parkland per thousand inhabitants",""
"null","<img src=""RetrieveValue-Bar-Line.png"" style=""max-width:80%; margin:10px;"">","null","html-keyboard-response","12","196347","0.0-12.0","14","1","2024-06-25 16:35:04","327d8d61a69a55b6203573ad19e3ab64","75.231.233.139","Mozilla/5.0 (Windows NT 10.0; Win64; x64) AppleWebKit/537.36 (KHTML, like Gecko) Chrome/126.0.0.0 Safari/537.36","WebKit","Chrome","126.0.0.0","Windows","10.0","https://zkohudqett.cognition.run/?jspsych-survey-multi-choice-response-0=15+of+the+16+cities+have+less+than+250+acres+of+parkland+per+thousand+inhabitants","es-419,es;q=0.9","15 of the 16 cities have less than 250 acres of parkland per thousand inhabitants",""
"null","<img src=""chart428.png"" style=""max-width:80%; margin:10px;"">","null","html-keyboard-response","13","206360","0.0-13.0","14","1","2024-06-25 16:35:04","327d8d61a69a55b6203573ad19e3ab64","75.231.233.139","Mozilla/5.0 (Windows NT 10.0; Win64; x64) AppleWebKit/537.36 (KHTML, like Gecko) Chrome/126.0.0.0 Safari/537.36","WebKit","Chrome","126.0.0.0","Windows","10.0","https://zkohudqett.cognition.run/?jspsych-survey-multi-choice-response-0=15+of+the+16+cities+have+less+than+250+acres+of+parkland+per+thousand+inhabitants","es-419,es;q=0.9","15 of the 16 cities have less than 250 acres of parkland per thousand inhabitants",""
"17965","","{""Q0"":""The number of members in FC Bayern Munich increased consistently from 2005 to 2018, however the rate at which it increased slowed after 2015""}","survey-multi-choice","14","224331","0.0-14.0","14","1","2024-06-25 16:35:04","327d8d61a69a55b6203573ad19e3ab64","75.231.233.139","Mozilla/5.0 (Windows NT 10.0; Win64; x64) AppleWebKit/537.36 (KHTML, like Gecko) Chrome/126.0.0.0 Safari/537.36","WebKit","Chrome","126.0.0.0","Windows","10.0","https://zkohudqett.cognition.run/?jspsych-survey-multi-choice-response-0=15+of+the+16+cities+have+less+than+250+acres+of+parkland+per+thousand+inhabitants","es-419,es;q=0.9","15 of the 16 cities have less than 250 acres of parkland per thousand inhabitants","[0]"
"null","<img src=""chart242.png"" style=""max-width:80%; margin:10px;"">","null","html-keyboard-response","15","234336","0.0-15.0","14","1","2024-06-25 16:35:04","327d8d61a69a55b6203573ad19e3ab64","75.231.233.139","Mozilla/5.0 (Windows NT 10.0; Win64; x64) AppleWebKit/537.36 (KHTML, like Gecko) Chrome/126.0.0.0 Safari/537.36","WebKit","Chrome","126.0.0.0","Windows","10.0","https://zkohudqett.cognition.run/?jspsych-survey-multi-choice-response-0=15+of+the+16+cities+have+less+than+250+acres+of+parkland+per+thousand+inhabitants","es-419,es;q=0.9","15 of the 16 cities have less than 250 acres of parkland per thousand inhabitants",""
"null","<img src=""Trend-Bar-Mark.png"" style=""max-width:80%; margin:10px;"">","null","html-keyboard-response","16","244342","0.0-16.0","14","1","2024-06-25 16:35:04","327d8d61a69a55b6203573ad19e3ab64","75.231.233.139","Mozilla/5.0 (Windows NT 10.0; Win64; x64) AppleWebKit/537.36 (KHTML, like Gecko) Chrome/126.0.0.0 Safari/537.36","WebKit","Chrome","126.0.0.0","Windows","10.0","https://zkohudqett.cognition.run/?jspsych-survey-multi-choice-response-0=15+of+the+16+cities+have+less+than+250+acres+of+parkland+per+thousand+inhabitants","es-419,es;q=0.9","15 of the 16 cities have less than 250 acres of parkland per thousand inhabitants",""
"null","<img src=""chart478.png"" style=""max-width:80%; margin:10px;"">","null","html-keyboard-response","17","254345","0.0-17.0","14","1","2024-06-25 16:35:04","327d8d61a69a55b6203573ad19e3ab64","75.231.233.139","Mozilla/5.0 (Windows NT 10.0; Win64; x64) AppleWebKit/537.36 (KHTML, like Gecko) Chrome/126.0.0.0 Safari/537.36","WebKit","Chrome","126.0.0.0","Windows","10.0","https://zkohudqett.cognition.run/?jspsych-survey-multi-choice-response-0=15+of+the+16+cities+have+less+than+250+acres+of+parkland+per+thousand+inhabitants","es-419,es;q=0.9","15 of the 16 cities have less than 250 acres of parkland per thousand inhabitants",""
"6520","","{""Q0"":""The employee number of Brunswick investment banking increased from 2014 to 2017""}","survey-multi-choice","18","260870","0.0-18.0","14","1","2024-06-25 16:35:04","327d8d61a69a55b6203573ad19e3ab64","75.231.233.139","Mozilla/5.0 (Windows NT 10.0; Win64; x64) AppleWebKit/537.36 (KHTML, like Gecko) Chrome/126.0.0.0 Safari/537.36","WebKit","Chrome","126.0.0.0","Windows","10.0","https://zkohudqett.cognition.run/?jspsych-survey-multi-choice-response-0=15+of+the+16+cities+have+less+than+250+acres+of+parkland+per+thousand+inhabitants","es-419,es;q=0.9","15 of the 16 cities have less than 250 acres of parkland per thousand inhabitants","[0]"
"null","<img src=""chart484.png"" style=""max-width:80%; margin:10px;"">","null","html-keyboard-response","19","270877","0.0-19.0","14","1","2024-06-25 16:35:04","327d8d61a69a55b6203573ad19e3ab64","75.231.233.139","Mozilla/5.0 (Windows NT 10.0; Win64; x64) AppleWebKit/537.36 (KHTML, like Gecko) Chrome/126.0.0.0 Safari/537.36","WebKit","Chrome","126.0.0.0","Windows","10.0","https://zkohudqett.cognition.run/?jspsych-survey-multi-choice-response-0=15+of+the+16+cities+have+less+than+250+acres+of+parkland+per+thousand+inhabitants","es-419,es;q=0.9","15 of the 16 cities have less than 250 acres of parkland per thousand inhabitants",""
"null","<img src=""Compare-Bar-Opacity.png"" style=""max-width:80%; margin:10px;"">","null","html-keyboard-response","20","280885","0.0-20.0","14","1","2024-06-25 16:35:04","327d8d61a69a55b6203573ad19e3ab64","75.231.233.139","Mozilla/5.0 (Windows NT 10.0; Win64; x64) AppleWebKit/537.36 (KHTML, like Gecko) Chrome/126.0.0.0 Safari/537.36","WebKit","Chrome","126.0.0.0","Windows","10.0","https://zkohudqett.cognition.run/?jspsych-survey-multi-choice-response-0=15+of+the+16+cities+have+less+than+250+acres+of+parkland+per+thousand+inhabitants","es-419,es;q=0.9","15 of the 16 cities have less than 250 acres of parkland per thousand inhabitants",""
"null","<img src=""chart540.png"" style=""max-width:80%; margin:10px;"">","null","html-keyboard-response","21","290890","0.0-21.0","14","1","2024-06-25 16:35:04","327d8d61a69a55b6203573ad19e3ab64","75.231.233.139","Mozilla/5.0 (Windows NT 10.0; Win64; x64) AppleWebKit/537.36 (KHTML, like Gecko) Chrome/126.0.0.0 Safari/537.36","WebKit","Chrome","126.0.0.0","Windows","10.0","https://zkohudqett.cognition.run/?jspsych-survey-multi-choice-response-0=15+of+the+16+cities+have+less+than+250+acres+of+parkland+per+thousand+inhabitants","es-419,es;q=0.9","15 of the 16 cities have less than 250 acres of parkland per thousand inhabitants",""
"4911","","{""Q0"":""There has been a general increase in Internal consumption of travel and tourism in Belize from 2010 to 2019""}","survey-multi-choice","22","295807","0.0-22.0","14","1","2024-06-25 16:35:04","327d8d61a69a55b6203573ad19e3ab64","75.231.233.139","Mozilla/5.0 (Windows NT 10.0; Win64; x64) AppleWebKit/537.36 (KHTML, like Gecko) Chrome/126.0.0.0 Safari/537.36","WebKit","Chrome","126.0.0.0","Windows","10.0","https://zkohudqett.cognition.run/?jspsych-survey-multi-choice-response-0=15+of+the+16+cities+have+less+than+250+acres+of+parkland+per+thousand+inhabitants","es-419,es;q=0.9","15 of the 16 cities have less than 250 acres of parkland per thousand inhabitants","[0]"
"null","<img src=""chart601.png"" style=""max-width:80%; margin:10px;"">","null","html-keyboard-response","23","305813","0.0-23.0","14","1","2024-06-25 16:35:04","327d8d61a69a55b6203573ad19e3ab64","75.231.233.139","Mozilla/5.0 (Windows NT 10.0; Win64; x64) AppleWebKit/537.36 (KHTML, like Gecko) Chrome/126.0.0.0 Safari/537.36","WebKit","Chrome","126.0.0.0","Windows","10.0","https://zkohudqett.cognition.run/?jspsych-survey-multi-choice-response-0=15+of+the+16+cities+have+less+than+250+acres+of+parkland+per+thousand+inhabitants","es-419,es;q=0.9","15 of the 16 cities have less than 250 acres of parkland per thousand inhabitants",""
"null","<img src=""chart634.png"" style=""max-width:80%; margin:10px;"">","null","html-keyboard-response","24","315819","0.0-24.0","14","1","2024-06-25 16:35:04","327d8d61a69a55b6203573ad19e3ab64","75.231.233.139","Mozilla/5.0 (Windows NT 10.0; Win64; x64) AppleWebKit/537.36 (KHTML, like Gecko) Chrome/126.0.0.0 Safari/537.36","WebKit","Chrome","126.0.0.0","Windows","10.0","https://zkohudqett.cognition.run/?jspsych-survey-multi-choice-response-0=15+of+the+16+cities+have+less+than+250+acres+of+parkland+per+thousand+inhabitants","es-419,es;q=0.9","15 of the 16 cities have less than 250 acres of parkland per thousand inhabitants",""
"null","<img src=""Filter-Line-Color.png"" style=""max-width:80%; margin:10px;"">","null","html-keyboard-response","25","325826","0.0-25.0","14","1","2024-06-25 16:35:04","327d8d61a69a55b6203573ad19e3ab64","75.231.233.139","Mozilla/5.0 (Windows NT 10.0; Win64; x64) AppleWebKit/537.36 (KHTML, like Gecko) Chrome/126.0.0.0 Safari/537.36","WebKit","Chrome","126.0.0.0","Windows","10.0","https://zkohudqett.cognition.run/?jspsych-survey-multi-choice-response-0=15+of+the+16+cities+have+less+than+250+acres+of+parkland+per+thousand+inhabitants","es-419,es;q=0.9","15 of the 16 cities have less than 250 acres of parkland per thousand inhabitants",""
"2553","","{""Q0"":""In 2020, an all time high of 2,500 million dollars was recorded as the New York Mets franchise value""}","survey-multi-choice","26","328384","0.0-26.0","14","1","2024-06-25 16:35:04","327d8d61a69a55b6203573ad19e3ab64","75.231.233.139","Mozilla/5.0 (Windows NT 10.0; Win64; x64) AppleWebKit/537.36 (KHTML, like Gecko) Chrome/126.0.0.0 Safari/537.36","WebKit","Chrome","126.0.0.0","Windows","10.0","https://zkohudqett.cognition.run/?jspsych-survey-multi-choice-response-0=15+of+the+16+cities+have+less+than+250+acres+of+parkland+per+thousand+inhabitants","es-419,es;q=0.9","15 of the 16 cities have less than 250 acres of parkland per thousand inhabitants","[0]"
"null","<img src=""chart5.png"" style=""max-width:80%; margin:10px;"">","null","html-keyboard-response","27","338391","0.0-27.0","14","1","2024-06-25 16:35:04","327d8d61a69a55b6203573ad19e3ab64","75.231.233.139","Mozilla/5.0 (Windows NT 10.0; Win64; x64) AppleWebKit/537.36 (KHTML, like Gecko) Chrome/126.0.0.0 Safari/537.36","WebKit","Chrome","126.0.0.0","Windows","10.0","https://zkohudqett.cognition.run/?jspsych-survey-multi-choice-response-0=15+of+the+16+cities+have+less+than+250+acres+of+parkland+per+thousand+inhabitants","es-419,es;q=0.9","15 of the 16 cities have less than 250 acres of parkland per thousand inhabitants",""
"null","<img src=""Range-Line-Line.png"" style=""max-width:80%; margin:10px;"">","null","html-keyboard-response","28","348396","0.0-28.0","14","1","2024-06-25 16:35:04","327d8d61a69a55b6203573ad19e3ab64","75.231.233.139","Mozilla/5.0 (Windows NT 10.0; Win64; x64) AppleWebKit/537.36 (KHTML, like Gecko) Chrome/126.0.0.0 Safari/537.36","WebKit","Chrome","126.0.0.0","Windows","10.0","https://zkohudqett.cognition.run/?jspsych-survey-multi-choice-response-0=15+of+the+16+cities+have+less+than+250+acres+of+parkland+per+thousand+inhabitants","es-419,es;q=0.9","15 of the 16 cities have less than 250 acres of parkland per thousand inhabitants",""
"null","<img src=""chart191.png"" style=""max-width:80%; margin:10px;"">","null","html-keyboard-response","29","358403","0.0-29.0","14","1","2024-06-25 16:35:04","327d8d61a69a55b6203573ad19e3ab64","75.231.233.139","Mozilla/5.0 (Windows NT 10.0; Win64; x64) AppleWebKit/537.36 (KHTML, like Gecko) Chrome/126.0.0.0 Safari/537.36","WebKit","Chrome","126.0.0.0","Windows","10.0","https://zkohudqett.cognition.run/?jspsych-survey-multi-choice-response-0=15+of+the+16+cities+have+less+than+250+acres+of+parkland+per+thousand+inhabitants","es-419,es;q=0.9","15 of the 16 cities have less than 250 acres of parkland per thousand inhabitants",""
"7032","","{""Q0"":""While there was a steady increase overall in sales revenue over time, from around 2002 to 2006 there was a time of peaks and falls in revenue""}","survey-multi-choice","30","365443","0.0-30.0","14","1","2024-06-25 16:35:04","327d8d61a69a55b6203573ad19e3ab64","75.231.233.139","Mozilla/5.0 (Windows NT 10.0; Win64; x64) AppleWebKit/537.36 (KHTML, like Gecko) Chrome/126.0.0.0 Safari/537.36","WebKit","Chrome","126.0.0.0","Windows","10.0","https://zkohudqett.cognition.run/?jspsych-survey-multi-choice-response-0=15+of+the+16+cities+have+less+than+250+acres+of+parkland+per+thousand+inhabitants","es-419,es;q=0.9","15 of the 16 cities have less than 250 acres of parkland per thousand inhabitants","[0]"
"null","<img src=""chart244.png"" style=""max-width:80%; margin:10px;"">","null","html-keyboard-response","31","375448","0.0-31.0","14","1","2024-06-25 16:35:04","327d8d61a69a55b6203573ad19e3ab64","75.231.233.139","Mozilla/5.0 (Windows NT 10.0; Win64; x64) AppleWebKit/537.36 (KHTML, like Gecko) Chrome/126.0.0.0 Safari/537.36","WebKit","Chrome","126.0.0.0","Windows","10.0","https://zkohudqett.cognition.run/?jspsych-survey-multi-choice-response-0=15+of+the+16+cities+have+less+than+250+acres+of+parkland+per+thousand+inhabitants","es-419,es;q=0.9","15 of the 16 cities have less than 250 acres of parkland per thousand inhabitants",""
"null","<img src=""chart76.png"" style=""max-width:80%; margin:10px;"">","null","html-keyboard-response","32","385455","0.0-32.0","14","1","2024-06-25 16:35:04","327d8d61a69a55b6203573ad19e3ab64","75.231.233.139","Mozilla/5.0 (Windows NT 10.0; Win64; x64) AppleWebKit/537.36 (KHTML, like Gecko) Chrome/126.0.0.0 Safari/537.36","WebKit","Chrome","126.0.0.0","Windows","10.0","https://zkohudqett.cognition.run/?jspsych-survey-multi-choice-response-0=15+of+the+16+cities+have+less+than+250+acres+of+parkland+per+thousand+inhabitants","es-419,es;q=0.9","15 of the 16 cities have less than 250 acres of parkland per thousand inhabitants",""
"null","<img src=""RetrieveValue-Line-Line.png"" style=""max-width:80%; margin:10px;"">","null","html-keyboard-response","33","395457","0.0-33.0","14","1","2024-06-25 16:35:04","327d8d61a69a55b6203573ad19e3ab64","75.231.233.139","Mozilla/5.0 (Windows NT 10.0; Win64; x64) AppleWebKit/537.36 (KHTML, like Gecko) Chrome/126.0.0.0 Safari/537.36","WebKit","Chrome","126.0.0.0","Windows","10.0","https://zkohudqett.cognition.run/?jspsych-survey-multi-choice-response-0=15+of+the+16+cities+have+less+than+250+acres+of+parkland+per+thousand+inhabitants","es-419,es;q=0.9","15 of the 16 cities have less than 250 acres of parkland per thousand inhabitants",""
"35386","","{""Q0"":""In 2007, Waste Management operating value is around 13000 million dollars""}","survey-multi-choice","34","430851","0.0-34.0","14","1","2024-06-25 16:35:04","327d8d61a69a55b6203573ad19e3ab64","75.231.233.139","Mozilla/5.0 (Windows NT 10.0; Win64; x64) AppleWebKit/537.36 (KHTML, like Gecko) Chrome/126.0.0.0 Safari/537.36","WebKit","Chrome","126.0.0.0","Windows","10.0","https://zkohudqett.cognition.run/?jspsych-survey-multi-choice-response-0=15+of+the+16+cities+have+less+than+250+acres+of+parkland+per+thousand+inhabitants","es-419,es;q=0.9","15 of the 16 cities have less than 250 acres of parkland per thousand inhabitants","[0]"
"null","<img src=""chart59.png"" style=""max-width:80%; margin:10px;"">","null","html-keyboard-response","35","440865","0.0-35.0","14","1","2024-06-25 16:35:04","327d8d61a69a55b6203573ad19e3ab64","75.231.233.139","Mozilla/5.0 (Windows NT 10.0; Win64; x64) AppleWebKit/537.36 (KHTML, like Gecko) Chrome/126.0.0.0 Safari/537.36","WebKit","Chrome","126.0.0.0","Windows","10.0","https://zkohudqett.cognition.run/?jspsych-survey-multi-choice-response-0=15+of+the+16+cities+have+less+than+250+acres+of+parkland+per+thousand+inhabitants","es-419,es;q=0.9","15 of the 16 cities have less than 250 acres of parkland per thousand inhabitants",""
"null","<img src=""chart308.png"" style=""max-width:80%; margin:10px;"">","null","html-keyboard-response","36","450871","0.0-36.0","14","1","2024-06-25 16:35:04","327d8d61a69a55b6203573ad19e3ab64","75.231.233.139","Mozilla/5.0 (Windows NT 10.0; Win64; x64) AppleWebKit/537.36 (KHTML, like Gecko) Chrome/126.0.0.0 Safari/537.36","WebKit","Chrome","126.0.0.0","Windows","10.0","https://zkohudqett.cognition.run/?jspsych-survey-multi-choice-response-0=15+of+the+16+cities+have+less+than+250+acres+of+parkland+per+thousand+inhabitants","es-419,es;q=0.9","15 of the 16 cities have less than 250 acres of parkland per thousand inhabitants",""
"null","<img src=""Trend-Line-Text.png"" style=""max-width:80%; margin:10px;"">","null","html-keyboard-response","37","460876","0.0-37.0","14","1","2024-06-25 16:35:04","327d8d61a69a55b6203573ad19e3ab64","75.231.233.139","Mozilla/5.0 (Windows NT 10.0; Win64; x64) AppleWebKit/537.36 (KHTML, like Gecko) Chrome/126.0.0.0 Safari/537.36","WebKit","Chrome","126.0.0.0","Windows","10.0","https://zkohudqett.cognition.run/?jspsych-survey-multi-choice-response-0=15+of+the+16+cities+have+less+than+250+acres+of+parkland+per+thousand+inhabitants","es-419,es;q=0.9","15 of the 16 cities have less than 250 acres of parkland per thousand inhabitants",""
"12909","","{""Q0"":""The alchol consumption in UK has been droping since 2010""}","survey-multi-choice","38","473793","0.0-38.0","14","1","2024-06-25 16:35:04","327d8d61a69a55b6203573ad19e3ab64","75.231.233.139","Mozilla/5.0 (Windows NT 10.0; Win64; x64) AppleWebKit/537.36 (KHTML, like Gecko) Chrome/126.0.0.0 Safari/537.36","WebKit","Chrome","126.0.0.0","Windows","10.0","https://zkohudqett.cognition.run/?jspsych-survey-multi-choice-response-0=15+of+the+16+cities+have+less+than+250+acres+of+parkland+per+thousand+inhabitants","es-419,es;q=0.9","15 of the 16 cities have less than 250 acres of parkland per thousand inhabitants","[0]"
"null","<img src=""chart641.png"" style=""max-width:80%; margin:10px;"">","null","html-keyboard-response","39","483800","0.0-39.0","14","1","2024-06-25 16:35:04","327d8d61a69a55b6203573ad19e3ab64","75.231.233.139","Mozilla/5.0 (Windows NT 10.0; Win64; x64) AppleWebKit/537.36 (KHTML, like Gecko) Chrome/126.0.0.0 Safari/537.36","WebKit","Chrome","126.0.0.0","Windows","10.0","https://zkohudqett.cognition.run/?jspsych-survey-multi-choice-response-0=15+of+the+16+cities+have+less+than+250+acres+of+parkland+per+thousand+inhabitants","es-419,es;q=0.9","15 of the 16 cities have less than 250 acres of parkland per thousand inhabitants",""
"null","<img src=""Compare-Line-Opacity.png"" style=""max-width:80%; margin:10px;"">","null","html-keyboard-response","40","493803","0.0-40.0","14","1","2024-06-25 16:35:04","327d8d61a69a55b6203573ad19e3ab64","75.231.233.139","Mozilla/5.0 (Windows NT 10.0; Win64; x64) AppleWebKit/537.36 (KHTML, like Gecko) Chrome/126.0.0.0 Safari/537.36","WebKit","Chrome","126.0.0.0","Windows","10.0","https://zkohudqett.cognition.run/?jspsych-survey-multi-choice-response-0=15+of+the+16+cities+have+less+than+250+acres+of+parkland+per+thousand+inhabitants","es-419,es;q=0.9","15 of the 16 cities have less than 250 acres of parkland per thousand inhabitants",""
"null","<img src=""chart400.png"" style=""max-width:80%; margin:10px;"">","null","html-keyboard-response","41","503807","0.0-41.0","14","1","2024-06-25 16:35:04","327d8d61a69a55b6203573ad19e3ab64","75.231.233.139","Mozilla/5.0 (Windows NT 10.0; Win64; x64) AppleWebKit/537.36 (KHTML, like Gecko) Chrome/126.0.0.0 Safari/537.36","WebKit","Chrome","126.0.0.0","Windows","10.0","https://zkohudqett.cognition.run/?jspsych-survey-multi-choice-response-0=15+of+the+16+cities+have+less+than+250+acres+of+parkland+per+thousand+inhabitants","es-419,es;q=0.9","15 of the 16 cities have less than 250 acres of parkland per thousand inhabitants",""
"5936","","{""Q0"":""The total assets in billion yuan have steadily increased year on year during the period shown on the graph from under 10 billion to over 25000 billion""}","survey-multi-choice","42","509750","0.0-42.0","14","1","2024-06-25 16:35:04","327d8d61a69a55b6203573ad19e3ab64","75.231.233.139","Mozilla/5.0 (Windows NT 10.0; Win64; x64) AppleWebKit/537.36 (KHTML, like Gecko) Chrome/126.0.0.0 Safari/537.36","WebKit","Chrome","126.0.0.0","Windows","10.0","https://zkohudqett.cognition.run/?jspsych-survey-multi-choice-response-0=15+of+the+16+cities+have+less+than+250+acres+of+parkland+per+thousand+inhabitants","es-419,es;q=0.9","15 of the 16 cities have less than 250 acres of parkland per thousand inhabitants","[0]"
"null","<img src=""chart512.png"" style=""max-width:80%; margin:10px;"">","null","html-keyboard-response","43","519763","0.0-43.0","14","1","2024-06-25 16:35:04","327d8d61a69a55b6203573ad19e3ab64","75.231.233.139","Mozilla/5.0 (Windows NT 10.0; Win64; x64) AppleWebKit/537.36 (KHTML, like Gecko) Chrome/126.0.0.0 Safari/537.36","WebKit","Chrome","126.0.0.0","Windows","10.0","https://zkohudqett.cognition.run/?jspsych-survey-multi-choice-response-0=15+of+the+16+cities+have+less+than+250+acres+of+parkland+per+thousand+inhabitants","es-419,es;q=0.9","15 of the 16 cities have less than 250 acres of parkland per thousand inhabitants",""
"null","<img src=""Filter-Scatter-Bound.png"" style=""max-width:80%; margin:10px;"">","null","html-keyboard-response","44","529771","0.0-44.0","14","1","2024-06-25 16:35:04","327d8d61a69a55b6203573ad19e3ab64","75.231.233.139","Mozilla/5.0 (Windows NT 10.0; Win64; x64) AppleWebKit/537.36 (KHTML, like Gecko) Chrome/126.0.0.0 Safari/537.36","WebKit","Chrome","126.0.0.0","Windows","10.0","https://zkohudqett.cognition.run/?jspsych-survey-multi-choice-response-0=15+of+the+16+cities+have+less+than+250+acres+of+parkland+per+thousand+inhabitants","es-419,es;q=0.9","15 of the 16 cities have less than 250 acres of parkland per thousand inhabitants",""
"null","<img src=""chart331.png"" style=""max-width:80%; margin:10px;"">","null","html-keyboard-response","45","539777","0.0-45.0","14","1","2024-06-25 16:35:04","327d8d61a69a55b6203573ad19e3ab64","75.231.233.139","Mozilla/5.0 (Windows NT 10.0; Win64; x64) AppleWebKit/537.36 (KHTML, like Gecko) Chrome/126.0.0.0 Safari/537.36","WebKit","Chrome","126.0.0.0","Windows","10.0","https://zkohudqett.cognition.run/?jspsych-survey-multi-choice-response-0=15+of+the+16+cities+have+less+than+250+acres+of+parkland+per+thousand+inhabitants","es-419,es;q=0.9","15 of the 16 cities have less than 250 acres of parkland per thousand inhabitants",""
"5346","","{""Q0"":""Player expenses have steadily increased over the years with a steep dip and increase back to the steady line (2010-2015)""}","survey-multi-choice","46","545131","0.0-46.0","14","1","2024-06-25 16:35:04","327d8d61a69a55b6203573ad19e3ab64","75.231.233.139","Mozilla/5.0 (Windows NT 10.0; Win64; x64) AppleWebKit/537.36 (KHTML, like Gecko) Chrome/126.0.0.0 Safari/537.36","WebKit","Chrome","126.0.0.0","Windows","10.0","https://zkohudqett.cognition.run/?jspsych-survey-multi-choice-response-0=15+of+the+16+cities+have+less+than+250+acres+of+parkland+per+thousand+inhabitants","es-419,es;q=0.9","15 of the 16 cities have less than 250 acres of parkland per thousand inhabitants","[0]"
"null","<img src=""chart468.png"" style=""max-width:80%; margin:10px;"">","null","html-keyboard-response","47","555139","0.0-47.0","14","1","2024-06-25 16:35:04","327d8d61a69a55b6203573ad19e3ab64","75.231.233.139","Mozilla/5.0 (Windows NT 10.0; Win64; x64) AppleWebKit/537.36 (KHTML, like Gecko) Chrome/126.0.0.0 Safari/537.36","WebKit","Chrome","126.0.0.0","Windows","10.0","https://zkohudqett.cognition.run/?jspsych-survey-multi-choice-response-0=15+of+the+16+cities+have+less+than+250+acres+of+parkland+per+thousand+inhabitants","es-419,es;q=0.9","15 of the 16 cities have less than 250 acres of parkland per thousand inhabitants",""
"null","<img src=""chart507.png"" style=""max-width:80%; margin:10px;"">","null","html-keyboard-response","48","565157","0.0-48.0","14","1","2024-06-25 16:35:04","327d8d61a69a55b6203573ad19e3ab64","75.231.233.139","Mozilla/5.0 (Windows NT 10.0; Win64; x64) AppleWebKit/537.36 (KHTML, like Gecko) Chrome/126.0.0.0 Safari/537.36","WebKit","Chrome","126.0.0.0","Windows","10.0","https://zkohudqett.cognition.run/?jspsych-survey-multi-choice-response-0=15+of+the+16+cities+have+less+than+250+acres+of+parkland+per+thousand+inhabitants","es-419,es;q=0.9","15 of the 16 cities have less than 250 acres of parkland per thousand inhabitants",""
"null","<img src=""Range-Scatter-Opacity.png"" style=""max-width:80%; margin:10px;"">","null","html-keyboard-response","49","575164","0.0-49.0","14","1","2024-06-25 16:35:04","327d8d61a69a55b6203573ad19e3ab64","75.231.233.139","Mozilla/5.0 (Windows NT 10.0; Win64; x64) AppleWebKit/537.36 (KHTML, like Gecko) Chrome/126.0.0.0 Safari/537.36","WebKit","Chrome","126.0.0.0","Windows","10.0","https://zkohudqett.cognition.run/?jspsych-survey-multi-choice-response-0=15+of+the+16+cities+have+less+than+250+acres+of+parkland+per+thousand+inhabitants","es-419,es;q=0.9","15 of the 16 cities have less than 250 acres of parkland per thousand inhabitants",""
"2270","","{""Q0"":""I can see from the bar chart that there are a lot more people working within the catering field compared to the medical services""}","survey-multi-choice","50","577438","0.0-50.0","14","1","2024-06-25 16:35:04","327d8d61a69a55b6203573ad19e3ab64","75.231.233.139","Mozilla/5.0 (Windows NT 10.0; Win64; x64) AppleWebKit/537.36 (KHTML, like Gecko) Chrome/126.0.0.0 Safari/537.36","WebKit","Chrome","126.0.0.0","Windows","10.0","https://zkohudqett.cognition.run/?jspsych-survey-multi-choice-response-0=15+of+the+16+cities+have+less+than+250+acres+of+parkland+per+thousand+inhabitants","es-419,es;q=0.9","15 of the 16 cities have less than 250 acres of parkland per thousand inhabitants","[0]"
"null","<img src=""chart542.png"" style=""max-width:80%; margin:10px;"">","null","html-keyboard-response","51","587446","0.0-51.0","14","1","2024-06-25 16:35:04","327d8d61a69a55b6203573ad19e3ab64","75.231.233.139","Mozilla/5.0 (Windows NT 10.0; Win64; x64) AppleWebKit/537.36 (KHTML, like Gecko) Chrome/126.0.0.0 Safari/537.36","WebKit","Chrome","126.0.0.0","Windows","10.0","https://zkohudqett.cognition.run/?jspsych-survey-multi-choice-response-0=15+of+the+16+cities+have+less+than+250+acres+of+parkland+per+thousand+inhabitants","es-419,es;q=0.9","15 of the 16 cities have less than 250 acres of parkland per thousand inhabitants",""
"null","<img src=""RetrieveValue-Scatter-Mark.png"" style=""max-width:80%; margin:10px;"">","null","html-keyboard-response","52","597455","0.0-52.0","14","1","2024-06-25 16:35:04","327d8d61a69a55b6203573ad19e3ab64","75.231.233.139","Mozilla/5.0 (Windows NT 10.0; Win64; x64) AppleWebKit/537.36 (KHTML, like Gecko) Chrome/126.0.0.0 Safari/537.36","WebKit","Chrome","126.0.0.0","Windows","10.0","https://zkohudqett.cognition.run/?jspsych-survey-multi-choice-response-0=15+of+the+16+cities+have+less+than+250+acres+of+parkland+per+thousand+inhabitants","es-419,es;q=0.9","15 of the 16 cities have less than 250 acres of parkland per thousand inhabitants",""
"null","<img src=""chart78.png"" style=""max-width:80%; margin:10px;"">","null","html-keyboard-response","53","607461","0.0-53.0","14","1","2024-06-25 16:35:04","327d8d61a69a55b6203573ad19e3ab64","75.231.233.139","Mozilla/5.0 (Windows NT 10.0; Win64; x64) AppleWebKit/537.36 (KHTML, like Gecko) Chrome/126.0.0.0 Safari/537.36","WebKit","Chrome","126.0.0.0","Windows","10.0","https://zkohudqett.cognition.run/?jspsych-survey-multi-choice-response-0=15+of+the+16+cities+have+less+than+250+acres+of+parkland+per+thousand+inhabitants","es-419,es;q=0.9","15 of the 16 cities have less than 250 acres of parkland per thousand inhabitants",""
"4448","","{""Q0"":""The average number of attendees at Manchester United games between 2009 and 2019 remains almost constant at nearly 80,000 before falling slightly in 2020""}","survey-multi-choice","54","611917","0.0-54.0","14","1","2024-06-25 16:35:04","327d8d61a69a55b6203573ad19e3ab64","75.231.233.139","Mozilla/5.0 (Windows NT 10.0; Win64; x64) AppleWebKit/537.36 (KHTML, like Gecko) Chrome/126.0.0.0 Safari/537.36","WebKit","Chrome","126.0.0.0","Windows","10.0","https://zkohudqett.cognition.run/?jspsych-survey-multi-choice-response-0=15+of+the+16+cities+have+less+than+250+acres+of+parkland+per+thousand+inhabitants","es-419,es;q=0.9","15 of the 16 cities have less than 250 acres of parkland per thousand inhabitants","[0]"
"null","<img src=""chart527.png"" style=""max-width:80%; margin:10px;"">","null","html-keyboard-response","55","621925","0.0-55.0","14","1","2024-06-25 16:35:04","327d8d61a69a55b6203573ad19e3ab64","75.231.233.139","Mozilla/5.0 (Windows NT 10.0; Win64; x64) AppleWebKit/537.36 (KHTML, like Gecko) Chrome/126.0.0.0 Safari/537.36","WebKit","Chrome","126.0.0.0","Windows","10.0","https://zkohudqett.cognition.run/?jspsych-survey-multi-choice-response-0=15+of+the+16+cities+have+less+than+250+acres+of+parkland+per+thousand+inhabitants","es-419,es;q=0.9","15 of the 16 cities have less than 250 acres of parkland per thousand inhabitants",""
"null","<img src=""chart452.png"" style=""max-width:80%; margin:10px;"">","null","html-keyboard-response","56","631933","0.0-56.0","14","1","2024-06-25 16:35:04","327d8d61a69a55b6203573ad19e3ab64","75.231.233.139","Mozilla/5.0 (Windows NT 10.0; Win64; x64) AppleWebKit/537.36 (KHTML, like Gecko) Chrome/126.0.0.0 Safari/537.36","WebKit","Chrome","126.0.0.0","Windows","10.0","https://zkohudqett.cognition.run/?jspsych-survey-multi-choice-response-0=15+of+the+16+cities+have+less+than+250+acres+of+parkland+per+thousand+inhabitants","es-419,es;q=0.9","15 of the 16 cities have less than 250 acres of parkland per thousand inhabitants",""
"null","<img src=""Trend-Scatter-Text.png"" style=""max-width:80%; margin:10px;"">","null","html-keyboard-response","57","641937","0.0-57.0","14","1","2024-06-25 16:35:04","327d8d61a69a55b6203573ad19e3ab64","75.231.233.139","Mozilla/5.0 (Windows NT 10.0; Win64; x64) AppleWebKit/537.36 (KHTML, like Gecko) Chrome/126.0.0.0 Safari/537.36","WebKit","Chrome","126.0.0.0","Windows","10.0","https://zkohudqett.cognition.run/?jspsych-survey-multi-choice-response-0=15+of+the+16+cities+have+less+than+250+acres+of+parkland+per+thousand+inhabitants","es-419,es;q=0.9","15 of the 16 cities have less than 250 acres of parkland per thousand inhabitants",""
"2510","","{""Q0"":""The number of overnight stays in travel accomodation in Slovakia has risen between 2007 and 2018""}","survey-multi-choice","58","644455","0.0-58.0","14","1","2024-06-25 16:35:04","327d8d61a69a55b6203573ad19e3ab64","75.231.233.139","Mozilla/5.0 (Windows NT 10.0; Win64; x64) AppleWebKit/537.36 (KHTML, like Gecko) Chrome/126.0.0.0 Safari/537.36","WebKit","Chrome","126.0.0.0","Windows","10.0","https://zkohudqett.cognition.run/?jspsych-survey-multi-choice-response-0=15+of+the+16+cities+have+less+than+250+acres+of+parkland+per+thousand+inhabitants","es-419,es;q=0.9","15 of the 16 cities have less than 250 acres of parkland per thousand inhabitants","[0]"
"null","<img src=""chart193.png"" style=""max-width:80%; margin:10px;"">","null","html-keyboard-response","59","654462","0.0-59.0","14","1","2024-06-25 16:35:04","327d8d61a69a55b6203573ad19e3ab64","75.231.233.139","Mozilla/5.0 (Windows NT 10.0; Win64; x64) AppleWebKit/537.36 (KHTML, like Gecko) Chrome/126.0.0.0 Safari/537.36","WebKit","Chrome","126.0.0.0","Windows","10.0","https://zkohudqett.cognition.run/?jspsych-survey-multi-choice-response-0=15+of+the+16+cities+have+less+than+250+acres+of+parkland+per+thousand+inhabitants","es-419,es;q=0.9","15 of the 16 cities have less than 250 acres of parkland per thousand inhabitants",""
"null","<img src=""Comapre-Scatter-Mark.png"" style=""max-width:80%; margin:10px;"">","null","html-keyboard-response","60","664468","0.0-60.0","14","1","2024-06-25 16:35:04","327d8d61a69a55b6203573ad19e3ab64","75.231.233.139","Mozilla/5.0 (Windows NT 10.0; Win64; x64) AppleWebKit/537.36 (KHTML, like Gecko) Chrome/126.0.0.0 Safari/537.36","WebKit","Chrome","126.0.0.0","Windows","10.0","https://zkohudqett.cognition.run/?jspsych-survey-multi-choice-response-0=15+of+the+16+cities+have+less+than+250+acres+of+parkland+per+thousand+inhabitants","es-419,es;q=0.9","15 of the 16 cities have less than 250 acres of parkland per thousand inhabitants",""
"null","<img src=""chart122.png"" style=""max-width:80%; margin:10px;"">","null","html-keyboard-response","61","674473","0.0-61.0","14","1","2024-06-25 16:35:04","327d8d61a69a55b6203573ad19e3ab64","75.231.233.139","Mozilla/5.0 (Windows NT 10.0; Win64; x64) AppleWebKit/537.36 (KHTML, like Gecko) Chrome/126.0.0.0 Safari/537.36","WebKit","Chrome","126.0.0.0","Windows","10.0","https://zkohudqett.cognition.run/?jspsych-survey-multi-choice-response-0=15+of+the+16+cities+have+less+than+250+acres+of+parkland+per+thousand+inhabitants","es-419,es;q=0.9","15 of the 16 cities have less than 250 acres of parkland per thousand inhabitants",""
"2087","","{""Q0"":""Turnover fell consistently until its lowest in 2013 and then gradually rose back up""}","survey-multi-choice","62","676569","0.0-62.0","14","1","2024-06-25 16:35:04","327d8d61a69a55b6203573ad19e3ab64","75.231.233.139","Mozilla/5.0 (Windows NT 10.0; Win64; x64) AppleWebKit/537.36 (KHTML, like Gecko) Chrome/126.0.0.0 Safari/537.36","WebKit","Chrome","126.0.0.0","Windows","10.0","https://zkohudqett.cognition.run/?jspsych-survey-multi-choice-response-0=15+of+the+16+cities+have+less+than+250+acres+of+parkland+per+thousand+inhabitants","es-419,es;q=0.9","15 of the 16 cities have less than 250 acres of parkland per thousand inhabitants","[0]"
