"rt","stimulus","response","trial_type","trial_index","time_elapsed","internal_node_id","run_id","condition","recorded_at","source_code_version","ip","user_agent","device","browser","browser_version","platform","platform_version","referer","accept_language","question_order"
"6031","<p>In this experiment, you will see 3 visualizations, each for 10 seconds.</p> <p> You need to remember the data fact <b>highlighted with annotation</b>, and try to recall it.</p>","0","html-button-response","0","6041","0.0-0.0","3","1","2024-06-25 15:59:15","327d8d61a69a55b6203573ad19e3ab64","73.123.108.47","Mozilla/5.0 (Macintosh; Intel Mac OS X 10_15_7) AppleWebKit/537.36 (KHTML, like Gecko) Chrome/126.0.0.0 Safari/537.36","Macintosh","Chrome","126.0.0.0","OS X","10_15_7","https://zkohudqett.cognition.run/","en-US,en;q=0.9",""
"6228","","{""Q0"":""durian""}","survey-multi-choice","1","12274","0.0-1.0","3","1","2024-06-25 15:59:15","327d8d61a69a55b6203573ad19e3ab64","73.123.108.47","Mozilla/5.0 (Macintosh; Intel Mac OS X 10_15_7) AppleWebKit/537.36 (KHTML, like Gecko) Chrome/126.0.0.0 Safari/537.36","Macintosh","Chrome","126.0.0.0","OS X","10_15_7","https://zkohudqett.cognition.run/","en-US,en;q=0.9","[0]"
"1977","<p>Great! You passed the attention check. Now let's begin!</p>","0","html-button-response","2","14256","0.0-2.0","3","1","2024-06-25 15:59:15","327d8d61a69a55b6203573ad19e3ab64","73.123.108.47","Mozilla/5.0 (Macintosh; Intel Mac OS X 10_15_7) AppleWebKit/537.36 (KHTML, like Gecko) Chrome/126.0.0.0 Safari/537.36","Macintosh","Chrome","126.0.0.0","OS X","10_15_7","https://zkohudqett.cognition.run/","en-US,en;q=0.9",""
"null","<img src=""chart69.png"" style=""max-width:80%; margin:10px;"">","null","html-keyboard-response","3","24259","0.0-3.0","3","1","2024-06-25 15:59:15","327d8d61a69a55b6203573ad19e3ab64","73.123.108.47","Mozilla/5.0 (Macintosh; Intel Mac OS X 10_15_7) AppleWebKit/537.36 (KHTML, like Gecko) Chrome/126.0.0.0 Safari/537.36","Macintosh","Chrome","126.0.0.0","OS X","10_15_7","https://zkohudqett.cognition.run/","en-US,en;q=0.9",""
"null","<img src=""Filter-Bar-Line.png"" style=""max-width:80%; margin:10px;"">","null","html-keyboard-response","4","34263","0.0-4.0","3","1","2024-06-25 15:59:15","327d8d61a69a55b6203573ad19e3ab64","73.123.108.47","Mozilla/5.0 (Macintosh; Intel Mac OS X 10_15_7) AppleWebKit/537.36 (KHTML, like Gecko) Chrome/126.0.0.0 Safari/537.36","Macintosh","Chrome","126.0.0.0","OS X","10_15_7","https://zkohudqett.cognition.run/","en-US,en;q=0.9",""
"null","<img src=""chart523.png"" style=""max-width:80%; margin:10px;"">","null","html-keyboard-response","5","44267","0.0-5.0","3","1","2024-06-25 15:59:15","327d8d61a69a55b6203573ad19e3ab64","73.123.108.47","Mozilla/5.0 (Macintosh; Intel Mac OS X 10_15_7) AppleWebKit/537.36 (KHTML, like Gecko) Chrome/126.0.0.0 Safari/537.36","Macintosh","Chrome","126.0.0.0","OS X","10_15_7","https://zkohudqett.cognition.run/","en-US,en;q=0.9",""
"14725","","{""Q0"":""The number of mobile customers in UK drops below 30 million from 2018 to 2019.""}","survey-multi-choice","6","58994","0.0-6.0","3","1","2024-06-25 15:59:15","327d8d61a69a55b6203573ad19e3ab64","73.123.108.47","Mozilla/5.0 (Macintosh; Intel Mac OS X 10_15_7) AppleWebKit/537.36 (KHTML, like Gecko) Chrome/126.0.0.0 Safari/537.36","Macintosh","Chrome","126.0.0.0","OS X","10_15_7","https://zkohudqett.cognition.run/","en-US,en;q=0.9","[0]"
"null","<img src=""Range-Bar-Bound.png"" style=""max-width:80%; margin:10px;"">","null","html-keyboard-response","7","69001","0.0-7.0","3","1","2024-06-25 15:59:15","327d8d61a69a55b6203573ad19e3ab64","73.123.108.47","Mozilla/5.0 (Macintosh; Intel Mac OS X 10_15_7) AppleWebKit/537.36 (KHTML, like Gecko) Chrome/126.0.0.0 Safari/537.36","Macintosh","Chrome","126.0.0.0","OS X","10_15_7","https://zkohudqett.cognition.run/","en-US,en;q=0.9",""
"null","<img src=""chart548.png"" style=""max-width:80%; margin:10px;"">","null","html-keyboard-response","8","79004","0.0-8.0","3","1","2024-06-25 15:59:15","327d8d61a69a55b6203573ad19e3ab64","73.123.108.47","Mozilla/5.0 (Macintosh; Intel Mac OS X 10_15_7) AppleWebKit/537.36 (KHTML, like Gecko) Chrome/126.0.0.0 Safari/537.36","Macintosh","Chrome","126.0.0.0","OS X","10_15_7","https://zkohudqett.cognition.run/","en-US,en;q=0.9",""
"null","<img src=""chart204.png"" style=""max-width:80%; margin:10px;"">","null","html-keyboard-response","9","89007","0.0-9.0","3","1","2024-06-25 15:59:15","327d8d61a69a55b6203573ad19e3ab64","73.123.108.47","Mozilla/5.0 (Macintosh; Intel Mac OS X 10_15_7) AppleWebKit/537.36 (KHTML, like Gecko) Chrome/126.0.0.0 Safari/537.36","Macintosh","Chrome","126.0.0.0","OS X","10_15_7","https://zkohudqett.cognition.run/","en-US,en;q=0.9",""
"12905","","{""Q0"":""People from most Asian countries spent 50 to 70 hours on smartphones.""}","survey-multi-choice","10","101915","0.0-10.0","3","1","2024-06-25 15:59:15","327d8d61a69a55b6203573ad19e3ab64","73.123.108.47","Mozilla/5.0 (Macintosh; Intel Mac OS X 10_15_7) AppleWebKit/537.36 (KHTML, like Gecko) Chrome/126.0.0.0 Safari/537.36","Macintosh","Chrome","126.0.0.0","OS X","10_15_7","https://zkohudqett.cognition.run/","en-US,en;q=0.9","[0]"
"null","<img src=""chart536.png"" style=""max-width:80%; margin:10px;"">","null","html-keyboard-response","11","111921","0.0-11.0","3","1","2024-06-25 15:59:15","327d8d61a69a55b6203573ad19e3ab64","73.123.108.47","Mozilla/5.0 (Macintosh; Intel Mac OS X 10_15_7) AppleWebKit/537.36 (KHTML, like Gecko) Chrome/126.0.0.0 Safari/537.36","Macintosh","Chrome","126.0.0.0","OS X","10_15_7","https://zkohudqett.cognition.run/","en-US,en;q=0.9",""
"null","<img src=""RetrieveValue-Bar-Text.png"" style=""max-width:80%; margin:10px;"">","null","html-keyboard-response","12","121923","0.0-12.0","3","1","2024-06-25 15:59:15","327d8d61a69a55b6203573ad19e3ab64","73.123.108.47","Mozilla/5.0 (Macintosh; Intel Mac OS X 10_15_7) AppleWebKit/537.36 (KHTML, like Gecko) Chrome/126.0.0.0 Safari/537.36","Macintosh","Chrome","126.0.0.0","OS X","10_15_7","https://zkohudqett.cognition.run/","en-US,en;q=0.9",""
"null","<img src=""chart416.png"" style=""max-width:80%; margin:10px;"">","null","html-keyboard-response","13","131925","0.0-13.0","3","1","2024-06-25 15:59:15","327d8d61a69a55b6203573ad19e3ab64","73.123.108.47","Mozilla/5.0 (Macintosh; Intel Mac OS X 10_15_7) AppleWebKit/537.36 (KHTML, like Gecko) Chrome/126.0.0.0 Safari/537.36","Macintosh","Chrome","126.0.0.0","OS X","10_15_7","https://zkohudqett.cognition.run/","en-US,en;q=0.9",""
"15808","","{""Q0"":""In 2016, the national debt of Ireland reach the lowest.""}","survey-multi-choice","14","147736","0.0-14.0","3","1","2024-06-25 15:59:15","327d8d61a69a55b6203573ad19e3ab64","73.123.108.47","Mozilla/5.0 (Macintosh; Intel Mac OS X 10_15_7) AppleWebKit/537.36 (KHTML, like Gecko) Chrome/126.0.0.0 Safari/537.36","Macintosh","Chrome","126.0.0.0","OS X","10_15_7","https://zkohudqett.cognition.run/","en-US,en;q=0.9","[0]"
"null","<img src=""chart85.png"" style=""max-width:80%; margin:10px;"">","null","html-keyboard-response","15","157744","0.0-15.0","3","1","2024-06-25 15:59:15","327d8d61a69a55b6203573ad19e3ab64","73.123.108.47","Mozilla/5.0 (Macintosh; Intel Mac OS X 10_15_7) AppleWebKit/537.36 (KHTML, like Gecko) Chrome/126.0.0.0 Safari/537.36","Macintosh","Chrome","126.0.0.0","OS X","10_15_7","https://zkohudqett.cognition.run/","en-US,en;q=0.9",""
"null","<img src=""chart243.png"" style=""max-width:80%; margin:10px;"">","null","html-keyboard-response","16","167746","0.0-16.0","3","1","2024-06-25 15:59:15","327d8d61a69a55b6203573ad19e3ab64","73.123.108.47","Mozilla/5.0 (Macintosh; Intel Mac OS X 10_15_7) AppleWebKit/537.36 (KHTML, like Gecko) Chrome/126.0.0.0 Safari/537.36","Macintosh","Chrome","126.0.0.0","OS X","10_15_7","https://zkohudqett.cognition.run/","en-US,en;q=0.9",""
"null","<img src=""Trend-Bar-Mark.png"" style=""max-width:80%; margin:10px;"">","null","html-keyboard-response","17","177751","0.0-17.0","3","1","2024-06-25 15:59:15","327d8d61a69a55b6203573ad19e3ab64","73.123.108.47","Mozilla/5.0 (Macintosh; Intel Mac OS X 10_15_7) AppleWebKit/537.36 (KHTML, like Gecko) Chrome/126.0.0.0 Safari/537.36","Macintosh","Chrome","126.0.0.0","OS X","10_15_7","https://zkohudqett.cognition.run/","en-US,en;q=0.9",""
"11137","","{""Q0"":""The employee number of Brunswick investment banking increased from 2014 to 2017""}","survey-multi-choice","18","188890","0.0-18.0","3","1","2024-06-25 15:59:15","327d8d61a69a55b6203573ad19e3ab64","73.123.108.47","Mozilla/5.0 (Macintosh; Intel Mac OS X 10_15_7) AppleWebKit/537.36 (KHTML, like Gecko) Chrome/126.0.0.0 Safari/537.36","Macintosh","Chrome","126.0.0.0","OS X","10_15_7","https://zkohudqett.cognition.run/","en-US,en;q=0.9","[0]"
"null","<img src=""chart474.png"" style=""max-width:80%; margin:10px;"">","null","html-keyboard-response","19","198895","0.0-19.0","3","1","2024-06-25 15:59:15","327d8d61a69a55b6203573ad19e3ab64","73.123.108.47","Mozilla/5.0 (Macintosh; Intel Mac OS X 10_15_7) AppleWebKit/537.36 (KHTML, like Gecko) Chrome/126.0.0.0 Safari/537.36","Macintosh","Chrome","126.0.0.0","OS X","10_15_7","https://zkohudqett.cognition.run/","en-US,en;q=0.9",""
"null","<img src=""Compare-Bar-Opacity.png"" style=""max-width:80%; margin:10px;"">","null","html-keyboard-response","20","208897","0.0-20.0","3","1","2024-06-25 15:59:15","327d8d61a69a55b6203573ad19e3ab64","73.123.108.47","Mozilla/5.0 (Macintosh; Intel Mac OS X 10_15_7) AppleWebKit/537.36 (KHTML, like Gecko) Chrome/126.0.0.0 Safari/537.36","Macintosh","Chrome","126.0.0.0","OS X","10_15_7","https://zkohudqett.cognition.run/","en-US,en;q=0.9",""
"null","<img src=""chart566.png"" style=""max-width:80%; margin:10px;"">","null","html-keyboard-response","21","218901","0.0-21.0","3","1","2024-06-25 15:59:15","327d8d61a69a55b6203573ad19e3ab64","73.123.108.47","Mozilla/5.0 (Macintosh; Intel Mac OS X 10_15_7) AppleWebKit/537.36 (KHTML, like Gecko) Chrome/126.0.0.0 Safari/537.36","Macintosh","Chrome","126.0.0.0","OS X","10_15_7","https://zkohudqett.cognition.run/","en-US,en;q=0.9",""
"8456","","{""Q0"":""China is spending more energy than the U.S. in 2019""}","survey-multi-choice","22","227360","0.0-22.0","3","1","2024-06-25 15:59:15","327d8d61a69a55b6203573ad19e3ab64","73.123.108.47","Mozilla/5.0 (Macintosh; Intel Mac OS X 10_15_7) AppleWebKit/537.36 (KHTML, like Gecko) Chrome/126.0.0.0 Safari/537.36","Macintosh","Chrome","126.0.0.0","OS X","10_15_7","https://zkohudqett.cognition.run/","en-US,en;q=0.9","[0]"
"null","<img src=""chart417.png"" style=""max-width:80%; margin:10px;"">","null","html-keyboard-response","23","237364","0.0-23.0","3","1","2024-06-25 15:59:15","327d8d61a69a55b6203573ad19e3ab64","73.123.108.47","Mozilla/5.0 (Macintosh; Intel Mac OS X 10_15_7) AppleWebKit/537.36 (KHTML, like Gecko) Chrome/126.0.0.0 Safari/537.36","Macintosh","Chrome","126.0.0.0","OS X","10_15_7","https://zkohudqett.cognition.run/","en-US,en;q=0.9",""
"null","<img src=""chart590.png"" style=""max-width:80%; margin:10px;"">","null","html-keyboard-response","24","247366","0.0-24.0","3","1","2024-06-25 15:59:15","327d8d61a69a55b6203573ad19e3ab64","73.123.108.47","Mozilla/5.0 (Macintosh; Intel Mac OS X 10_15_7) AppleWebKit/537.36 (KHTML, like Gecko) Chrome/126.0.0.0 Safari/537.36","Macintosh","Chrome","126.0.0.0","OS X","10_15_7","https://zkohudqett.cognition.run/","en-US,en;q=0.9",""
"null","<img src=""Filter-Line-Shade.png"" style=""max-width:80%; margin:10px;"">","null","html-keyboard-response","25","257370","0.0-25.0","3","1","2024-06-25 15:59:15","327d8d61a69a55b6203573ad19e3ab64","73.123.108.47","Mozilla/5.0 (Macintosh; Intel Mac OS X 10_15_7) AppleWebKit/537.36 (KHTML, like Gecko) Chrome/126.0.0.0 Safari/537.36","Macintosh","Chrome","126.0.0.0","OS X","10_15_7","https://zkohudqett.cognition.run/","en-US,en;q=0.9",""
"8308","","{""Q0"":""The number of hospital in the U.S. has been lower than 3500 thousands since 2003""}","survey-multi-choice","26","265681","0.0-26.0","3","1","2024-06-25 15:59:15","327d8d61a69a55b6203573ad19e3ab64","73.123.108.47","Mozilla/5.0 (Macintosh; Intel Mac OS X 10_15_7) AppleWebKit/537.36 (KHTML, like Gecko) Chrome/126.0.0.0 Safari/537.36","Macintosh","Chrome","126.0.0.0","OS X","10_15_7","https://zkohudqett.cognition.run/","en-US,en;q=0.9","[0]"
"null","<img src=""Range-Line-Color.png"" style=""max-width:80%; margin:10px;"">","null","html-keyboard-response","27","275688","0.0-27.0","3","1","2024-06-25 15:59:15","327d8d61a69a55b6203573ad19e3ab64","73.123.108.47","Mozilla/5.0 (Macintosh; Intel Mac OS X 10_15_7) AppleWebKit/537.36 (KHTML, like Gecko) Chrome/126.0.0.0 Safari/537.36","Macintosh","Chrome","126.0.0.0","OS X","10_15_7","https://zkohudqett.cognition.run/","en-US,en;q=0.9",""
"null","<img src=""chart594.png"" style=""max-width:80%; margin:10px;"">","null","html-keyboard-response","28","285690","0.0-28.0","3","1","2024-06-25 15:59:15","327d8d61a69a55b6203573ad19e3ab64","73.123.108.47","Mozilla/5.0 (Macintosh; Intel Mac OS X 10_15_7) AppleWebKit/537.36 (KHTML, like Gecko) Chrome/126.0.0.0 Safari/537.36","Macintosh","Chrome","126.0.0.0","OS X","10_15_7","https://zkohudqett.cognition.run/","en-US,en;q=0.9",""
"null","<img src=""chart81.png"" style=""max-width:80%; margin:10px;"">","null","html-keyboard-response","29","295694","0.0-29.0","3","1","2024-06-25 15:59:15","327d8d61a69a55b6203573ad19e3ab64","73.123.108.47","Mozilla/5.0 (Macintosh; Intel Mac OS X 10_15_7) AppleWebKit/537.36 (KHTML, like Gecko) Chrome/126.0.0.0 Safari/537.36","Macintosh","Chrome","126.0.0.0","OS X","10_15_7","https://zkohudqett.cognition.run/","en-US,en;q=0.9",""
"8937","","{""Q0"":""Since 2014, the unit sales is between 0.5 and 1.4 milion""}","survey-multi-choice","30","304634","0.0-30.0","3","1","2024-06-25 15:59:15","327d8d61a69a55b6203573ad19e3ab64","73.123.108.47","Mozilla/5.0 (Macintosh; Intel Mac OS X 10_15_7) AppleWebKit/537.36 (KHTML, like Gecko) Chrome/126.0.0.0 Safari/537.36","Macintosh","Chrome","126.0.0.0","OS X","10_15_7","https://zkohudqett.cognition.run/","en-US,en;q=0.9","[0]"
"null","<img src=""chart192.png"" style=""max-width:80%; margin:10px;"">","null","html-keyboard-response","31","314641","0.0-31.0","3","1","2024-06-25 15:59:15","327d8d61a69a55b6203573ad19e3ab64","73.123.108.47","Mozilla/5.0 (Macintosh; Intel Mac OS X 10_15_7) AppleWebKit/537.36 (KHTML, like Gecko) Chrome/126.0.0.0 Safari/537.36","Macintosh","Chrome","126.0.0.0","OS X","10_15_7","https://zkohudqett.cognition.run/","en-US,en;q=0.9",""
"null","<img src=""RetrieveValue-Line-Mark.png"" style=""max-width:80%; margin:10px;"">","null","html-keyboard-response","32","324645","0.0-32.0","3","1","2024-06-25 15:59:15","327d8d61a69a55b6203573ad19e3ab64","73.123.108.47","Mozilla/5.0 (Macintosh; Intel Mac OS X 10_15_7) AppleWebKit/537.36 (KHTML, like Gecko) Chrome/126.0.0.0 Safari/537.36","Macintosh","Chrome","126.0.0.0","OS X","10_15_7","https://zkohudqett.cognition.run/","en-US,en;q=0.9",""
"null","<img src=""chart105.png"" style=""max-width:80%; margin:10px;"">","null","html-keyboard-response","33","334649","0.0-33.0","3","1","2024-06-25 15:59:15","327d8d61a69a55b6203573ad19e3ab64","73.123.108.47","Mozilla/5.0 (Macintosh; Intel Mac OS X 10_15_7) AppleWebKit/537.36 (KHTML, like Gecko) Chrome/126.0.0.0 Safari/537.36","Macintosh","Chrome","126.0.0.0","OS X","10_15_7","https://zkohudqett.cognition.run/","en-US,en;q=0.9",""
"5703","","{""Q0"":""In 2007, Waste Management operating value is around 13000 million dollars""}","survey-multi-choice","34","340354","0.0-34.0","3","1","2024-06-25 15:59:15","327d8d61a69a55b6203573ad19e3ab64","73.123.108.47","Mozilla/5.0 (Macintosh; Intel Mac OS X 10_15_7) AppleWebKit/537.36 (KHTML, like Gecko) Chrome/126.0.0.0 Safari/537.36","Macintosh","Chrome","126.0.0.0","OS X","10_15_7","https://zkohudqett.cognition.run/","en-US,en;q=0.9","[0]"
"null","<img src=""chart465.png"" style=""max-width:80%; margin:10px;"">","null","html-keyboard-response","35","350361","0.0-35.0","3","1","2024-06-25 15:59:15","327d8d61a69a55b6203573ad19e3ab64","73.123.108.47","Mozilla/5.0 (Macintosh; Intel Mac OS X 10_15_7) AppleWebKit/537.36 (KHTML, like Gecko) Chrome/126.0.0.0 Safari/537.36","Macintosh","Chrome","126.0.0.0","OS X","10_15_7","https://zkohudqett.cognition.run/","en-US,en;q=0.9",""
"null","<img src=""Trend-Line-Mark.png"" style=""max-width:80%; margin:10px;"">","null","html-keyboard-response","36","360363","0.0-36.0","3","1","2024-06-25 15:59:15","327d8d61a69a55b6203573ad19e3ab64","73.123.108.47","Mozilla/5.0 (Macintosh; Intel Mac OS X 10_15_7) AppleWebKit/537.36 (KHTML, like Gecko) Chrome/126.0.0.0 Safari/537.36","Macintosh","Chrome","126.0.0.0","OS X","10_15_7","https://zkohudqett.cognition.run/","en-US,en;q=0.9",""
"null","<img src=""chart201.png"" style=""max-width:80%; margin:10px;"">","null","html-keyboard-response","37","370366","0.0-37.0","3","1","2024-06-25 15:59:15","327d8d61a69a55b6203573ad19e3ab64","73.123.108.47","Mozilla/5.0 (Macintosh; Intel Mac OS X 10_15_7) AppleWebKit/537.36 (KHTML, like Gecko) Chrome/126.0.0.0 Safari/537.36","Macintosh","Chrome","126.0.0.0","OS X","10_15_7","https://zkohudqett.cognition.run/","en-US,en;q=0.9",""
"7556","","{""Q0"":""The alchol consumption in UK has been droping since 2010""}","survey-multi-choice","38","377925","0.0-38.0","3","1","2024-06-25 15:59:15","327d8d61a69a55b6203573ad19e3ab64","73.123.108.47","Mozilla/5.0 (Macintosh; Intel Mac OS X 10_15_7) AppleWebKit/537.36 (KHTML, like Gecko) Chrome/126.0.0.0 Safari/537.36","Macintosh","Chrome","126.0.0.0","OS X","10_15_7","https://zkohudqett.cognition.run/","en-US,en;q=0.9","[0]"
"null","<img src=""chart38.png"" style=""max-width:80%; margin:10px;"">","null","html-keyboard-response","39","387932","0.0-39.0","3","1","2024-06-25 15:59:15","327d8d61a69a55b6203573ad19e3ab64","73.123.108.47","Mozilla/5.0 (Macintosh; Intel Mac OS X 10_15_7) AppleWebKit/537.36 (KHTML, like Gecko) Chrome/126.0.0.0 Safari/537.36","Macintosh","Chrome","126.0.0.0","OS X","10_15_7","https://zkohudqett.cognition.run/","en-US,en;q=0.9",""
"null","<img src=""Compare-Line-Text.png"" style=""max-width:80%; margin:10px;"">","null","html-keyboard-response","40","397935","0.0-40.0","3","1","2024-06-25 15:59:15","327d8d61a69a55b6203573ad19e3ab64","73.123.108.47","Mozilla/5.0 (Macintosh; Intel Mac OS X 10_15_7) AppleWebKit/537.36 (KHTML, like Gecko) Chrome/126.0.0.0 Safari/537.36","Macintosh","Chrome","126.0.0.0","OS X","10_15_7","https://zkohudqett.cognition.run/","en-US,en;q=0.9",""
"null","<img src=""chart230.png"" style=""max-width:80%; margin:10px;"">","null","html-keyboard-response","41","407939","0.0-41.0","3","1","2024-06-25 15:59:15","327d8d61a69a55b6203573ad19e3ab64","73.123.108.47","Mozilla/5.0 (Macintosh; Intel Mac OS X 10_15_7) AppleWebKit/537.36 (KHTML, like Gecko) Chrome/126.0.0.0 Safari/537.36","Macintosh","Chrome","126.0.0.0","OS X","10_15_7","https://zkohudqett.cognition.run/","en-US,en;q=0.9",""
"7302","","{""Q0"":""The operating profit of Roche group is lower in 2008 than in 2018""}","survey-multi-choice","42","415245","0.0-42.0","3","1","2024-06-25 15:59:15","327d8d61a69a55b6203573ad19e3ab64","73.123.108.47","Mozilla/5.0 (Macintosh; Intel Mac OS X 10_15_7) AppleWebKit/537.36 (KHTML, like Gecko) Chrome/126.0.0.0 Safari/537.36","Macintosh","Chrome","126.0.0.0","OS X","10_15_7","https://zkohudqett.cognition.run/","en-US,en;q=0.9","[0]"
"null","<img src=""chart257.png"" style=""max-width:80%; margin:10px;"">","null","html-keyboard-response","43","425251","0.0-43.0","3","1","2024-06-25 15:59:15","327d8d61a69a55b6203573ad19e3ab64","73.123.108.47","Mozilla/5.0 (Macintosh; Intel Mac OS X 10_15_7) AppleWebKit/537.36 (KHTML, like Gecko) Chrome/126.0.0.0 Safari/537.36","Macintosh","Chrome","126.0.0.0","OS X","10_15_7","https://zkohudqett.cognition.run/","en-US,en;q=0.9",""
"null","<img src=""Filter-Scatter-Shade.png"" style=""max-width:80%; margin:10px;"">","null","html-keyboard-response","44","435254","0.0-44.0","3","1","2024-06-25 15:59:15","327d8d61a69a55b6203573ad19e3ab64","73.123.108.47","Mozilla/5.0 (Macintosh; Intel Mac OS X 10_15_7) AppleWebKit/537.36 (KHTML, like Gecko) Chrome/126.0.0.0 Safari/537.36","Macintosh","Chrome","126.0.0.0","OS X","10_15_7","https://zkohudqett.cognition.run/","en-US,en;q=0.9",""
"null","<img src=""chart424.png"" style=""max-width:80%; margin:10px;"">","null","html-keyboard-response","45","445258","0.0-45.0","3","1","2024-06-25 15:59:15","327d8d61a69a55b6203573ad19e3ab64","73.123.108.47","Mozilla/5.0 (Macintosh; Intel Mac OS X 10_15_7) AppleWebKit/537.36 (KHTML, like Gecko) Chrome/126.0.0.0 Safari/537.36","Macintosh","Chrome","126.0.0.0","OS X","10_15_7","https://zkohudqett.cognition.run/","en-US,en;q=0.9",""
"12005","","{""Q0"":""Some penguins are heavier than 5000 g""}","survey-multi-choice","46","457266","0.0-46.0","3","1","2024-06-25 15:59:15","327d8d61a69a55b6203573ad19e3ab64","73.123.108.47","Mozilla/5.0 (Macintosh; Intel Mac OS X 10_15_7) AppleWebKit/537.36 (KHTML, like Gecko) Chrome/126.0.0.0 Safari/537.36","Macintosh","Chrome","126.0.0.0","OS X","10_15_7","https://zkohudqett.cognition.run/","en-US,en;q=0.9","[0]"
"null","<img src=""chart173.png"" style=""max-width:80%; margin:10px;"">","null","html-keyboard-response","47","467272","0.0-47.0","3","1","2024-06-25 15:59:15","327d8d61a69a55b6203573ad19e3ab64","73.123.108.47","Mozilla/5.0 (Macintosh; Intel Mac OS X 10_15_7) AppleWebKit/537.36 (KHTML, like Gecko) Chrome/126.0.0.0 Safari/537.36","Macintosh","Chrome","126.0.0.0","OS X","10_15_7","https://zkohudqett.cognition.run/","en-US,en;q=0.9",""
"null","<img src=""Range-Scatter-Opacity.png"" style=""max-width:80%; margin:10px;"">","null","html-keyboard-response","48","477276","0.0-48.0","3","1","2024-06-25 15:59:15","327d8d61a69a55b6203573ad19e3ab64","73.123.108.47","Mozilla/5.0 (Macintosh; Intel Mac OS X 10_15_7) AppleWebKit/537.36 (KHTML, like Gecko) Chrome/126.0.0.0 Safari/537.36","Macintosh","Chrome","126.0.0.0","OS X","10_15_7","https://zkohudqett.cognition.run/","en-US,en;q=0.9",""
"null","<img src=""chart476.png"" style=""max-width:80%; margin:10px;"">","null","html-keyboard-response","49","487280","0.0-49.0","3","1","2024-06-25 15:59:15","327d8d61a69a55b6203573ad19e3ab64","73.123.108.47","Mozilla/5.0 (Macintosh; Intel Mac OS X 10_15_7) AppleWebKit/537.36 (KHTML, like Gecko) Chrome/126.0.0.0 Safari/537.36","Macintosh","Chrome","126.0.0.0","OS X","10_15_7","https://zkohudqett.cognition.run/","en-US,en;q=0.9",""
"8037","","{""Q0"":""Most countries have less than 50000 income""}","survey-multi-choice","50","495319","0.0-50.0","3","1","2024-06-25 15:59:15","327d8d61a69a55b6203573ad19e3ab64","73.123.108.47","Mozilla/5.0 (Macintosh; Intel Mac OS X 10_15_7) AppleWebKit/537.36 (KHTML, like Gecko) Chrome/126.0.0.0 Safari/537.36","Macintosh","Chrome","126.0.0.0","OS X","10_15_7","https://zkohudqett.cognition.run/","en-US,en;q=0.9","[0]"
"null","<img src=""RetrieveValue-Scatter-Line.png"" style=""max-width:80%; margin:10px;"">","null","html-keyboard-response","51","505327","0.0-51.0","3","1","2024-06-25 15:59:15","327d8d61a69a55b6203573ad19e3ab64","73.123.108.47","Mozilla/5.0 (Macintosh; Intel Mac OS X 10_15_7) AppleWebKit/537.36 (KHTML, like Gecko) Chrome/126.0.0.0 Safari/537.36","Macintosh","Chrome","126.0.0.0","OS X","10_15_7","https://zkohudqett.cognition.run/","en-US,en;q=0.9",""
"null","<img src=""chart203.png"" style=""max-width:80%; margin:10px;"">","null","html-keyboard-response","52","515330","0.0-52.0","3","1","2024-06-25 15:59:15","327d8d61a69a55b6203573ad19e3ab64","73.123.108.47","Mozilla/5.0 (Macintosh; Intel Mac OS X 10_15_7) AppleWebKit/537.36 (KHTML, like Gecko) Chrome/126.0.0.0 Safari/537.36","Macintosh","Chrome","126.0.0.0","OS X","10_15_7","https://zkohudqett.cognition.run/","en-US,en;q=0.9",""
"null","<img src=""chart510.png"" style=""max-width:80%; margin:10px;"">","null","html-keyboard-response","53","525333","0.0-53.0","3","1","2024-06-25 15:59:15","327d8d61a69a55b6203573ad19e3ab64","73.123.108.47","Mozilla/5.0 (Macintosh; Intel Mac OS X 10_15_7) AppleWebKit/537.36 (KHTML, like Gecko) Chrome/126.0.0.0 Safari/537.36","Macintosh","Chrome","126.0.0.0","OS X","10_15_7","https://zkohudqett.cognition.run/","en-US,en;q=0.9",""
"5604","","{""Q0"":""Car A has about 160 horsepower and runs 15 miles per gallon""}","survey-multi-choice","54","530939","0.0-54.0","3","1","2024-06-25 15:59:15","327d8d61a69a55b6203573ad19e3ab64","73.123.108.47","Mozilla/5.0 (Macintosh; Intel Mac OS X 10_15_7) AppleWebKit/537.36 (KHTML, like Gecko) Chrome/126.0.0.0 Safari/537.36","Macintosh","Chrome","126.0.0.0","OS X","10_15_7","https://zkohudqett.cognition.run/","en-US,en;q=0.9","[0]"
"null","<img src=""Trend-Scatter-Text.png"" style=""max-width:80%; margin:10px;"">","null","html-keyboard-response","55","540947","0.0-55.0","3","1","2024-06-25 15:59:15","327d8d61a69a55b6203573ad19e3ab64","73.123.108.47","Mozilla/5.0 (Macintosh; Intel Mac OS X 10_15_7) AppleWebKit/537.36 (KHTML, like Gecko) Chrome/126.0.0.0 Safari/537.36","Macintosh","Chrome","126.0.0.0","OS X","10_15_7","https://zkohudqett.cognition.run/","en-US,en;q=0.9",""
"null","<img src=""chart427.png"" style=""max-width:80%; margin:10px;"">","null","html-keyboard-response","56","550951","0.0-56.0","3","1","2024-06-25 15:59:15","327d8d61a69a55b6203573ad19e3ab64","73.123.108.47","Mozilla/5.0 (Macintosh; Intel Mac OS X 10_15_7) AppleWebKit/537.36 (KHTML, like Gecko) Chrome/126.0.0.0 Safari/537.36","Macintosh","Chrome","126.0.0.0","OS X","10_15_7","https://zkohudqett.cognition.run/","en-US,en;q=0.9",""
"null","<img src=""chart175.png"" style=""max-width:80%; margin:10px;"">","null","html-keyboard-response","57","560954","0.0-57.0","3","1","2024-06-25 15:59:15","327d8d61a69a55b6203573ad19e3ab64","73.123.108.47","Mozilla/5.0 (Macintosh; Intel Mac OS X 10_15_7) AppleWebKit/537.36 (KHTML, like Gecko) Chrome/126.0.0.0 Safari/537.36","Macintosh","Chrome","126.0.0.0","OS X","10_15_7","https://zkohudqett.cognition.run/","en-US,en;q=0.9",""
"8736","","{""Q0"":""The rotten tomatoes rating is related to IMDB rating""}","survey-multi-choice","58","569693","0.0-58.0","3","1","2024-06-25 15:59:15","327d8d61a69a55b6203573ad19e3ab64","73.123.108.47","Mozilla/5.0 (Macintosh; Intel Mac OS X 10_15_7) AppleWebKit/537.36 (KHTML, like Gecko) Chrome/126.0.0.0 Safari/537.36","Macintosh","Chrome","126.0.0.0","OS X","10_15_7","https://zkohudqett.cognition.run/","en-US,en;q=0.9","[0]"
"null","<img src=""chart2.png"" style=""max-width:80%; margin:10px;"">","null","html-keyboard-response","59","579701","0.0-59.0","3","1","2024-06-25 15:59:15","327d8d61a69a55b6203573ad19e3ab64","73.123.108.47","Mozilla/5.0 (Macintosh; Intel Mac OS X 10_15_7) AppleWebKit/537.36 (KHTML, like Gecko) Chrome/126.0.0.0 Safari/537.36","Macintosh","Chrome","126.0.0.0","OS X","10_15_7","https://zkohudqett.cognition.run/","en-US,en;q=0.9",""
"null","<img src=""Compare-Scatter-Opacity.png"" style=""max-width:80%; margin:10px;"">","null","html-keyboard-response","60","589704","0.0-60.0","3","1","2024-06-25 15:59:15","327d8d61a69a55b6203573ad19e3ab64","73.123.108.47","Mozilla/5.0 (Macintosh; Intel Mac OS X 10_15_7) AppleWebKit/537.36 (KHTML, like Gecko) Chrome/126.0.0.0 Safari/537.36","Macintosh","Chrome","126.0.0.0","OS X","10_15_7","https://zkohudqett.cognition.run/","en-US,en;q=0.9",""
"null","<img src=""chart286.png"" style=""max-width:80%; margin:10px;"">","null","html-keyboard-response","61","599709","0.0-61.0","3","1","2024-06-25 15:59:15","327d8d61a69a55b6203573ad19e3ab64","73.123.108.47","Mozilla/5.0 (Macintosh; Intel Mac OS X 10_15_7) AppleWebKit/537.36 (KHTML, like Gecko) Chrome/126.0.0.0 Safari/537.36","Macintosh","Chrome","126.0.0.0","OS X","10_15_7","https://zkohudqett.cognition.run/","en-US,en;q=0.9",""
"8269","","{""Q0"":""Penguin A has larger mass and longer beak than penguin B""}","survey-multi-choice","62","607980","0.0-62.0","3","1","2024-06-25 15:59:15","327d8d61a69a55b6203573ad19e3ab64","73.123.108.47","Mozilla/5.0 (Macintosh; Intel Mac OS X 10_15_7) AppleWebKit/537.36 (KHTML, like Gecko) Chrome/126.0.0.0 Safari/537.36","Macintosh","Chrome","126.0.0.0","OS X","10_15_7","https://zkohudqett.cognition.run/","en-US,en;q=0.9","[0]"
