"rt","stimulus","response","trial_type","trial_index","time_elapsed","internal_node_id","run_id","condition","recorded_at","source_code_version","ip","user_agent","device","browser","browser_version","platform","platform_version","referer","accept_language","question_order"
"7556","<p>In this experiment, you will see 3 visualizations, each for 10 seconds.</p> <p> You need to remember the data fact <b>highlighted with annotation</b>, and try to recall it.</p>","0","html-button-response","0","7559","0.0-0.0","6","1","2024-06-25 16:09:46","327d8d61a69a55b6203573ad19e3ab64","24.62.218.82","Mozilla/5.0 (Windows NT 10.0; Win64; x64) AppleWebKit/537.36 (KHTML, like Gecko) Chrome/126.0.0.0 Safari/537.36","WebKit","Chrome","126.0.0.0","Windows","10.0","https://zkohudqett.cognition.run/","en-US,en;q=0.9",""
"7678","","{""Q0"":""durian""}","survey-multi-choice","1","15240","0.0-1.0","6","1","2024-06-25 16:09:46","327d8d61a69a55b6203573ad19e3ab64","24.62.218.82","Mozilla/5.0 (Windows NT 10.0; Win64; x64) AppleWebKit/537.36 (KHTML, like Gecko) Chrome/126.0.0.0 Safari/537.36","WebKit","Chrome","126.0.0.0","Windows","10.0","https://zkohudqett.cognition.run/","en-US,en;q=0.9","[0]"
"1829","<p>Great! You passed the attention check. Now let's begin!</p>","0","html-button-response","2","17071","0.0-2.0","6","1","2024-06-25 16:09:46","327d8d61a69a55b6203573ad19e3ab64","24.62.218.82","Mozilla/5.0 (Windows NT 10.0; Win64; x64) AppleWebKit/537.36 (KHTML, like Gecko) Chrome/126.0.0.0 Safari/537.36","WebKit","Chrome","126.0.0.0","Windows","10.0","https://zkohudqett.cognition.run/","en-US,en;q=0.9",""
"null","<img src=""Filter-Bar-Line.png"" style=""max-width:80%; margin:10px;"">","null","html-keyboard-response","3","27073","0.0-3.0","6","1","2024-06-25 16:09:46","327d8d61a69a55b6203573ad19e3ab64","24.62.218.82","Mozilla/5.0 (Windows NT 10.0; Win64; x64) AppleWebKit/537.36 (KHTML, like Gecko) Chrome/126.0.0.0 Safari/537.36","WebKit","Chrome","126.0.0.0","Windows","10.0","https://zkohudqett.cognition.run/","en-US,en;q=0.9",""
"null","<img src=""chart419.png"" style=""max-width:80%; margin:10px;"">","null","html-keyboard-response","4","37075","0.0-4.0","6","1","2024-06-25 16:09:46","327d8d61a69a55b6203573ad19e3ab64","24.62.218.82","Mozilla/5.0 (Windows NT 10.0; Win64; x64) AppleWebKit/537.36 (KHTML, like Gecko) Chrome/126.0.0.0 Safari/537.36","WebKit","Chrome","126.0.0.0","Windows","10.0","https://zkohudqett.cognition.run/","en-US,en;q=0.9",""
"null","<img src=""chart387.png"" style=""max-width:80%; margin:10px;"">","null","html-keyboard-response","5","47076","0.0-5.0","6","1","2024-06-25 16:09:46","327d8d61a69a55b6203573ad19e3ab64","24.62.218.82","Mozilla/5.0 (Windows NT 10.0; Win64; x64) AppleWebKit/537.36 (KHTML, like Gecko) Chrome/126.0.0.0 Safari/537.36","WebKit","Chrome","126.0.0.0","Windows","10.0","https://zkohudqett.cognition.run/","en-US,en;q=0.9",""
"12098","","{""Q0"":""The number of mobile customers in UK drops below 30 million from 2018 to 2019.""}","survey-multi-choice","6","59175","0.0-6.0","6","1","2024-06-25 16:09:46","327d8d61a69a55b6203573ad19e3ab64","24.62.218.82","Mozilla/5.0 (Windows NT 10.0; Win64; x64) AppleWebKit/537.36 (KHTML, like Gecko) Chrome/126.0.0.0 Safari/537.36","WebKit","Chrome","126.0.0.0","Windows","10.0","https://zkohudqett.cognition.run/","en-US,en;q=0.9","[0]"
"null","<img src=""chart446.png"" style=""max-width:80%; margin:10px;"">","null","html-keyboard-response","7","69179","0.0-7.0","6","1","2024-06-25 16:09:46","327d8d61a69a55b6203573ad19e3ab64","24.62.218.82","Mozilla/5.0 (Windows NT 10.0; Win64; x64) AppleWebKit/537.36 (KHTML, like Gecko) Chrome/126.0.0.0 Safari/537.36","WebKit","Chrome","126.0.0.0","Windows","10.0","https://zkohudqett.cognition.run/","en-US,en;q=0.9",""
"null","<img src=""Range-Bar-Opacity.png"" style=""max-width:80%; margin:10px;"">","null","html-keyboard-response","8","79182","0.0-8.0","6","1","2024-06-25 16:09:46","327d8d61a69a55b6203573ad19e3ab64","24.62.218.82","Mozilla/5.0 (Windows NT 10.0; Win64; x64) AppleWebKit/537.36 (KHTML, like Gecko) Chrome/126.0.0.0 Safari/537.36","WebKit","Chrome","126.0.0.0","Windows","10.0","https://zkohudqett.cognition.run/","en-US,en;q=0.9",""
"null","<img src=""chart190.png"" style=""max-width:80%; margin:10px;"">","null","html-keyboard-response","9","89184","0.0-9.0","6","1","2024-06-25 16:09:46","327d8d61a69a55b6203573ad19e3ab64","24.62.218.82","Mozilla/5.0 (Windows NT 10.0; Win64; x64) AppleWebKit/537.36 (KHTML, like Gecko) Chrome/126.0.0.0 Safari/537.36","WebKit","Chrome","126.0.0.0","Windows","10.0","https://zkohudqett.cognition.run/","en-US,en;q=0.9",""
"8882","","{""Q0"":""People from most Asian countries spent 50 to 70 hours on smartphones.""}","survey-multi-choice","10","98067","0.0-10.0","6","1","2024-06-25 16:09:46","327d8d61a69a55b6203573ad19e3ab64","24.62.218.82","Mozilla/5.0 (Windows NT 10.0; Win64; x64) AppleWebKit/537.36 (KHTML, like Gecko) Chrome/126.0.0.0 Safari/537.36","WebKit","Chrome","126.0.0.0","Windows","10.0","https://zkohudqett.cognition.run/","en-US,en;q=0.9","[0]"
"null","<img src=""chart87.png"" style=""max-width:80%; margin:10px;"">","null","html-keyboard-response","11","108071","0.0-11.0","6","1","2024-06-25 16:09:46","327d8d61a69a55b6203573ad19e3ab64","24.62.218.82","Mozilla/5.0 (Windows NT 10.0; Win64; x64) AppleWebKit/537.36 (KHTML, like Gecko) Chrome/126.0.0.0 Safari/537.36","WebKit","Chrome","126.0.0.0","Windows","10.0","https://zkohudqett.cognition.run/","en-US,en;q=0.9",""
"null","<img src=""RetrieveValue-Bar-Opacity.png"" style=""max-width:80%; margin:10px;"">","null","html-keyboard-response","12","118073","0.0-12.0","6","1","2024-06-25 16:09:46","327d8d61a69a55b6203573ad19e3ab64","24.62.218.82","Mozilla/5.0 (Windows NT 10.0; Win64; x64) AppleWebKit/537.36 (KHTML, like Gecko) Chrome/126.0.0.0 Safari/537.36","WebKit","Chrome","126.0.0.0","Windows","10.0","https://zkohudqett.cognition.run/","en-US,en;q=0.9",""
"null","<img src=""chart555.png"" style=""max-width:80%; margin:10px;"">","null","html-keyboard-response","13","128075","0.0-13.0","6","1","2024-06-25 16:09:46","327d8d61a69a55b6203573ad19e3ab64","24.62.218.82","Mozilla/5.0 (Windows NT 10.0; Win64; x64) AppleWebKit/537.36 (KHTML, like Gecko) Chrome/126.0.0.0 Safari/537.36","WebKit","Chrome","126.0.0.0","Windows","10.0","https://zkohudqett.cognition.run/","en-US,en;q=0.9",""
"10295","","{""Q0"":""In 2016, the national debt of Ireland reach the lowest.""}","survey-multi-choice","14","138372","0.0-14.0","6","1","2024-06-25 16:09:46","327d8d61a69a55b6203573ad19e3ab64","24.62.218.82","Mozilla/5.0 (Windows NT 10.0; Win64; x64) AppleWebKit/537.36 (KHTML, like Gecko) Chrome/126.0.0.0 Safari/537.36","WebKit","Chrome","126.0.0.0","Windows","10.0","https://zkohudqett.cognition.run/","en-US,en;q=0.9","[0]"
"null","<img src=""Trend-Bar-Color.png"" style=""max-width:80%; margin:10px;"">","null","html-keyboard-response","15","148375","0.0-15.0","6","1","2024-06-25 16:09:46","327d8d61a69a55b6203573ad19e3ab64","24.62.218.82","Mozilla/5.0 (Windows NT 10.0; Win64; x64) AppleWebKit/537.36 (KHTML, like Gecko) Chrome/126.0.0.0 Safari/537.36","WebKit","Chrome","126.0.0.0","Windows","10.0","https://zkohudqett.cognition.run/","en-US,en;q=0.9",""
"null","<img src=""chart424.png"" style=""max-width:80%; margin:10px;"">","null","html-keyboard-response","16","158377","0.0-16.0","6","1","2024-06-25 16:09:46","327d8d61a69a55b6203573ad19e3ab64","24.62.218.82","Mozilla/5.0 (Windows NT 10.0; Win64; x64) AppleWebKit/537.36 (KHTML, like Gecko) Chrome/126.0.0.0 Safari/537.36","WebKit","Chrome","126.0.0.0","Windows","10.0","https://zkohudqett.cognition.run/","en-US,en;q=0.9",""
"null","<img src=""chart412.png"" style=""max-width:80%; margin:10px;"">","null","html-keyboard-response","17","168379","0.0-17.0","6","1","2024-06-25 16:09:46","327d8d61a69a55b6203573ad19e3ab64","24.62.218.82","Mozilla/5.0 (Windows NT 10.0; Win64; x64) AppleWebKit/537.36 (KHTML, like Gecko) Chrome/126.0.0.0 Safari/537.36","WebKit","Chrome","126.0.0.0","Windows","10.0","https://zkohudqett.cognition.run/","en-US,en;q=0.9",""
"11215","","{""Q0"":""The employee number of Brunswick investment banking increased from 2014 to 2017""}","survey-multi-choice","18","179595","0.0-18.0","6","1","2024-06-25 16:09:46","327d8d61a69a55b6203573ad19e3ab64","24.62.218.82","Mozilla/5.0 (Windows NT 10.0; Win64; x64) AppleWebKit/537.36 (KHTML, like Gecko) Chrome/126.0.0.0 Safari/537.36","WebKit","Chrome","126.0.0.0","Windows","10.0","https://zkohudqett.cognition.run/","en-US,en;q=0.9","[0]"
"null","<img src=""Compare-Bar-Text.png"" style=""max-width:80%; margin:10px;"">","null","html-keyboard-response","19","189599","0.0-19.0","6","1","2024-06-25 16:09:46","327d8d61a69a55b6203573ad19e3ab64","24.62.218.82","Mozilla/5.0 (Windows NT 10.0; Win64; x64) AppleWebKit/537.36 (KHTML, like Gecko) Chrome/126.0.0.0 Safari/537.36","WebKit","Chrome","126.0.0.0","Windows","10.0","https://zkohudqett.cognition.run/","en-US,en;q=0.9",""
"null","<img src=""chart616.png"" style=""max-width:80%; margin:10px;"">","null","html-keyboard-response","20","199600","0.0-20.0","6","1","2024-06-25 16:09:46","327d8d61a69a55b6203573ad19e3ab64","24.62.218.82","Mozilla/5.0 (Windows NT 10.0; Win64; x64) AppleWebKit/537.36 (KHTML, like Gecko) Chrome/126.0.0.0 Safari/537.36","WebKit","Chrome","126.0.0.0","Windows","10.0","https://zkohudqett.cognition.run/","en-US,en;q=0.9",""
"null","<img src=""chart298.png"" style=""max-width:80%; margin:10px;"">","null","html-keyboard-response","21","209602","0.0-21.0","6","1","2024-06-25 16:09:46","327d8d61a69a55b6203573ad19e3ab64","24.62.218.82","Mozilla/5.0 (Windows NT 10.0; Win64; x64) AppleWebKit/537.36 (KHTML, like Gecko) Chrome/126.0.0.0 Safari/537.36","WebKit","Chrome","126.0.0.0","Windows","10.0","https://zkohudqett.cognition.run/","en-US,en;q=0.9",""
"10806","","{""Q0"":""China is spending more energy than the U.S. in 2019""}","survey-multi-choice","22","220409","0.0-22.0","6","1","2024-06-25 16:09:46","327d8d61a69a55b6203573ad19e3ab64","24.62.218.82","Mozilla/5.0 (Windows NT 10.0; Win64; x64) AppleWebKit/537.36 (KHTML, like Gecko) Chrome/126.0.0.0 Safari/537.36","WebKit","Chrome","126.0.0.0","Windows","10.0","https://zkohudqett.cognition.run/","en-US,en;q=0.9","[0]"
"null","<img src=""Filter-Line-Opacity.png"" style=""max-width:80%; margin:10px;"">","null","html-keyboard-response","23","230413","0.0-23.0","6","1","2024-06-25 16:09:46","327d8d61a69a55b6203573ad19e3ab64","24.62.218.82","Mozilla/5.0 (Windows NT 10.0; Win64; x64) AppleWebKit/537.36 (KHTML, like Gecko) Chrome/126.0.0.0 Safari/537.36","WebKit","Chrome","126.0.0.0","Windows","10.0","https://zkohudqett.cognition.run/","en-US,en;q=0.9",""
"null","<img src=""chart59.png"" style=""max-width:80%; margin:10px;"">","null","html-keyboard-response","24","240415","0.0-24.0","6","1","2024-06-25 16:09:46","327d8d61a69a55b6203573ad19e3ab64","24.62.218.82","Mozilla/5.0 (Windows NT 10.0; Win64; x64) AppleWebKit/537.36 (KHTML, like Gecko) Chrome/126.0.0.0 Safari/537.36","WebKit","Chrome","126.0.0.0","Windows","10.0","https://zkohudqett.cognition.run/","en-US,en;q=0.9",""
"null","<img src=""chart616.png"" style=""max-width:80%; margin:10px;"">","null","html-keyboard-response","25","250418","0.0-25.0","6","1","2024-06-25 16:09:46","327d8d61a69a55b6203573ad19e3ab64","24.62.218.82","Mozilla/5.0 (Windows NT 10.0; Win64; x64) AppleWebKit/537.36 (KHTML, like Gecko) Chrome/126.0.0.0 Safari/537.36","WebKit","Chrome","126.0.0.0","Windows","10.0","https://zkohudqett.cognition.run/","en-US,en;q=0.9",""
"21671","","{""Q0"":""The number of hospital in the U.S. has been lower than 3500 thousands since 2003""}","survey-multi-choice","26","272091","0.0-26.0","6","1","2024-06-25 16:09:46","327d8d61a69a55b6203573ad19e3ab64","24.62.218.82","Mozilla/5.0 (Windows NT 10.0; Win64; x64) AppleWebKit/537.36 (KHTML, like Gecko) Chrome/126.0.0.0 Safari/537.36","WebKit","Chrome","126.0.0.0","Windows","10.0","https://zkohudqett.cognition.run/","en-US,en;q=0.9","[0]"
"null","<img src=""chart237.png"" style=""max-width:80%; margin:10px;"">","null","html-keyboard-response","27","282095","0.0-27.0","6","1","2024-06-25 16:09:46","327d8d61a69a55b6203573ad19e3ab64","24.62.218.82","Mozilla/5.0 (Windows NT 10.0; Win64; x64) AppleWebKit/537.36 (KHTML, like Gecko) Chrome/126.0.0.0 Safari/537.36","WebKit","Chrome","126.0.0.0","Windows","10.0","https://zkohudqett.cognition.run/","en-US,en;q=0.9",""
"null","<img src=""chart189.png"" style=""max-width:80%; margin:10px;"">","null","html-keyboard-response","28","292097","0.0-28.0","6","1","2024-06-25 16:09:46","327d8d61a69a55b6203573ad19e3ab64","24.62.218.82","Mozilla/5.0 (Windows NT 10.0; Win64; x64) AppleWebKit/537.36 (KHTML, like Gecko) Chrome/126.0.0.0 Safari/537.36","WebKit","Chrome","126.0.0.0","Windows","10.0","https://zkohudqett.cognition.run/","en-US,en;q=0.9",""
"null","<img src=""Range-Line-Shade.png"" style=""max-width:80%; margin:10px;"">","null","html-keyboard-response","29","302099","0.0-29.0","6","1","2024-06-25 16:09:46","327d8d61a69a55b6203573ad19e3ab64","24.62.218.82","Mozilla/5.0 (Windows NT 10.0; Win64; x64) AppleWebKit/537.36 (KHTML, like Gecko) Chrome/126.0.0.0 Safari/537.36","WebKit","Chrome","126.0.0.0","Windows","10.0","https://zkohudqett.cognition.run/","en-US,en;q=0.9",""
"16196","","{""Q0"":""Since 2014, the unit sales is between 0.5 and 1.4 milion""}","survey-multi-choice","30","318297","0.0-30.0","6","1","2024-06-25 16:09:46","327d8d61a69a55b6203573ad19e3ab64","24.62.218.82","Mozilla/5.0 (Windows NT 10.0; Win64; x64) AppleWebKit/537.36 (KHTML, like Gecko) Chrome/126.0.0.0 Safari/537.36","WebKit","Chrome","126.0.0.0","Windows","10.0","https://zkohudqett.cognition.run/","en-US,en;q=0.9","[0]"
"null","<img src=""chart48.png"" style=""max-width:80%; margin:10px;"">","null","html-keyboard-response","31","328301","0.0-31.0","6","1","2024-06-25 16:09:46","327d8d61a69a55b6203573ad19e3ab64","24.62.218.82","Mozilla/5.0 (Windows NT 10.0; Win64; x64) AppleWebKit/537.36 (KHTML, like Gecko) Chrome/126.0.0.0 Safari/537.36","WebKit","Chrome","126.0.0.0","Windows","10.0","https://zkohudqett.cognition.run/","en-US,en;q=0.9",""
"null","<img src=""RetrieveValue-Line-Mark.png"" style=""max-width:80%; margin:10px;"">","null","html-keyboard-response","32","338303","0.0-32.0","6","1","2024-06-25 16:09:46","327d8d61a69a55b6203573ad19e3ab64","24.62.218.82","Mozilla/5.0 (Windows NT 10.0; Win64; x64) AppleWebKit/537.36 (KHTML, like Gecko) Chrome/126.0.0.0 Safari/537.36","WebKit","Chrome","126.0.0.0","Windows","10.0","https://zkohudqett.cognition.run/","en-US,en;q=0.9",""
"null","<img src=""chart332.png"" style=""max-width:80%; margin:10px;"">","null","html-keyboard-response","33","348305","0.0-33.0","6","1","2024-06-25 16:09:46","327d8d61a69a55b6203573ad19e3ab64","24.62.218.82","Mozilla/5.0 (Windows NT 10.0; Win64; x64) AppleWebKit/537.36 (KHTML, like Gecko) Chrome/126.0.0.0 Safari/537.36","WebKit","Chrome","126.0.0.0","Windows","10.0","https://zkohudqett.cognition.run/","en-US,en;q=0.9",""
"10893","","{""Q0"":""In 2007, Waste Management operating value is around 13000 million dollars""}","survey-multi-choice","34","359201","0.0-34.0","6","1","2024-06-25 16:09:46","327d8d61a69a55b6203573ad19e3ab64","24.62.218.82","Mozilla/5.0 (Windows NT 10.0; Win64; x64) AppleWebKit/537.36 (KHTML, like Gecko) Chrome/126.0.0.0 Safari/537.36","WebKit","Chrome","126.0.0.0","Windows","10.0","https://zkohudqett.cognition.run/","en-US,en;q=0.9","[0]"
"null","<img src=""chart619.png"" style=""max-width:80%; margin:10px;"">","null","html-keyboard-response","35","369206","0.0-35.0","6","1","2024-06-25 16:09:46","327d8d61a69a55b6203573ad19e3ab64","24.62.218.82","Mozilla/5.0 (Windows NT 10.0; Win64; x64) AppleWebKit/537.36 (KHTML, like Gecko) Chrome/126.0.0.0 Safari/537.36","WebKit","Chrome","126.0.0.0","Windows","10.0","https://zkohudqett.cognition.run/","en-US,en;q=0.9",""
"null","<img src=""chart572.png"" style=""max-width:80%; margin:10px;"">","null","html-keyboard-response","36","379213","0.0-36.0","6","1","2024-06-25 16:09:46","327d8d61a69a55b6203573ad19e3ab64","24.62.218.82","Mozilla/5.0 (Windows NT 10.0; Win64; x64) AppleWebKit/537.36 (KHTML, like Gecko) Chrome/126.0.0.0 Safari/537.36","WebKit","Chrome","126.0.0.0","Windows","10.0","https://zkohudqett.cognition.run/","en-US,en;q=0.9",""
"null","<img src=""Trend-Line-Mark.png"" style=""max-width:80%; margin:10px;"">","null","html-keyboard-response","37","389222","0.0-37.0","6","1","2024-06-25 16:09:46","327d8d61a69a55b6203573ad19e3ab64","24.62.218.82","Mozilla/5.0 (Windows NT 10.0; Win64; x64) AppleWebKit/537.36 (KHTML, like Gecko) Chrome/126.0.0.0 Safari/537.36","WebKit","Chrome","126.0.0.0","Windows","10.0","https://zkohudqett.cognition.run/","en-US,en;q=0.9",""
"18224","","{""Q0"":""The alchol consumption in UK has been droping since 2010""}","survey-multi-choice","38","407450","0.0-38.0","6","1","2024-06-25 16:09:46","327d8d61a69a55b6203573ad19e3ab64","24.62.218.82","Mozilla/5.0 (Windows NT 10.0; Win64; x64) AppleWebKit/537.36 (KHTML, like Gecko) Chrome/126.0.0.0 Safari/537.36","WebKit","Chrome","126.0.0.0","Windows","10.0","https://zkohudqett.cognition.run/","en-US,en;q=0.9","[0]"
"null","<img src=""Compare-Line-Text.png"" style=""max-width:80%; margin:10px;"">","null","html-keyboard-response","39","417455","0.0-39.0","6","1","2024-06-25 16:09:46","327d8d61a69a55b6203573ad19e3ab64","24.62.218.82","Mozilla/5.0 (Windows NT 10.0; Win64; x64) AppleWebKit/537.36 (KHTML, like Gecko) Chrome/126.0.0.0 Safari/537.36","WebKit","Chrome","126.0.0.0","Windows","10.0","https://zkohudqett.cognition.run/","en-US,en;q=0.9",""
"null","<img src=""chart206.png"" style=""max-width:80%; margin:10px;"">","null","html-keyboard-response","40","427459","0.0-40.0","6","1","2024-06-25 16:09:46","327d8d61a69a55b6203573ad19e3ab64","24.62.218.82","Mozilla/5.0 (Windows NT 10.0; Win64; x64) AppleWebKit/537.36 (KHTML, like Gecko) Chrome/126.0.0.0 Safari/537.36","WebKit","Chrome","126.0.0.0","Windows","10.0","https://zkohudqett.cognition.run/","en-US,en;q=0.9",""
"null","<img src=""chart379.png"" style=""max-width:80%; margin:10px;"">","null","html-keyboard-response","41","437463","0.0-41.0","6","1","2024-06-25 16:09:46","327d8d61a69a55b6203573ad19e3ab64","24.62.218.82","Mozilla/5.0 (Windows NT 10.0; Win64; x64) AppleWebKit/537.36 (KHTML, like Gecko) Chrome/126.0.0.0 Safari/537.36","WebKit","Chrome","126.0.0.0","Windows","10.0","https://zkohudqett.cognition.run/","en-US,en;q=0.9",""
"11389","","{""Q0"":""The operating profit of Roche group is lower in 2008 than in 2018""}","survey-multi-choice","42","448854","0.0-42.0","6","1","2024-06-25 16:09:46","327d8d61a69a55b6203573ad19e3ab64","24.62.218.82","Mozilla/5.0 (Windows NT 10.0; Win64; x64) AppleWebKit/537.36 (KHTML, like Gecko) Chrome/126.0.0.0 Safari/537.36","WebKit","Chrome","126.0.0.0","Windows","10.0","https://zkohudqett.cognition.run/","en-US,en;q=0.9","[0]"
"null","<img src=""chart295.png"" style=""max-width:80%; margin:10px;"">","null","html-keyboard-response","43","458865","0.0-43.0","6","1","2024-06-25 16:09:46","327d8d61a69a55b6203573ad19e3ab64","24.62.218.82","Mozilla/5.0 (Windows NT 10.0; Win64; x64) AppleWebKit/537.36 (KHTML, like Gecko) Chrome/126.0.0.0 Safari/537.36","WebKit","Chrome","126.0.0.0","Windows","10.0","https://zkohudqett.cognition.run/","en-US,en;q=0.9",""
"null","<img src=""Filter-Scatter-Shade.png"" style=""max-width:80%; margin:10px;"">","null","html-keyboard-response","44","468875","0.0-44.0","6","1","2024-06-25 16:09:46","327d8d61a69a55b6203573ad19e3ab64","24.62.218.82","Mozilla/5.0 (Windows NT 10.0; Win64; x64) AppleWebKit/537.36 (KHTML, like Gecko) Chrome/126.0.0.0 Safari/537.36","WebKit","Chrome","126.0.0.0","Windows","10.0","https://zkohudqett.cognition.run/","en-US,en;q=0.9",""
"null","<img src=""chart81.png"" style=""max-width:80%; margin:10px;"">","null","html-keyboard-response","45","478878","0.0-45.0","6","1","2024-06-25 16:09:46","327d8d61a69a55b6203573ad19e3ab64","24.62.218.82","Mozilla/5.0 (Windows NT 10.0; Win64; x64) AppleWebKit/537.36 (KHTML, like Gecko) Chrome/126.0.0.0 Safari/537.36","WebKit","Chrome","126.0.0.0","Windows","10.0","https://zkohudqett.cognition.run/","en-US,en;q=0.9",""
"9227","","{""Q0"":""Some penguins are heavier than 5000 g""}","survey-multi-choice","46","488109","0.0-46.0","6","1","2024-06-25 16:09:46","327d8d61a69a55b6203573ad19e3ab64","24.62.218.82","Mozilla/5.0 (Windows NT 10.0; Win64; x64) AppleWebKit/537.36 (KHTML, like Gecko) Chrome/126.0.0.0 Safari/537.36","WebKit","Chrome","126.0.0.0","Windows","10.0","https://zkohudqett.cognition.run/","en-US,en;q=0.9","[0]"
"null","<img src=""Range-Scatter-Color.png"" style=""max-width:80%; margin:10px;"">","null","html-keyboard-response","47","498118","0.0-47.0","6","1","2024-06-25 16:09:46","327d8d61a69a55b6203573ad19e3ab64","24.62.218.82","Mozilla/5.0 (Windows NT 10.0; Win64; x64) AppleWebKit/537.36 (KHTML, like Gecko) Chrome/126.0.0.0 Safari/537.36","WebKit","Chrome","126.0.0.0","Windows","10.0","https://zkohudqett.cognition.run/","en-US,en;q=0.9",""
"null","<img src=""chart153.png"" style=""max-width:80%; margin:10px;"">","null","html-keyboard-response","48","508125","0.0-48.0","6","1","2024-06-25 16:09:46","327d8d61a69a55b6203573ad19e3ab64","24.62.218.82","Mozilla/5.0 (Windows NT 10.0; Win64; x64) AppleWebKit/537.36 (KHTML, like Gecko) Chrome/126.0.0.0 Safari/537.36","WebKit","Chrome","126.0.0.0","Windows","10.0","https://zkohudqett.cognition.run/","en-US,en;q=0.9",""
"null","<img src=""chart545.png"" style=""max-width:80%; margin:10px;"">","null","html-keyboard-response","49","518134","0.0-49.0","6","1","2024-06-25 16:09:46","327d8d61a69a55b6203573ad19e3ab64","24.62.218.82","Mozilla/5.0 (Windows NT 10.0; Win64; x64) AppleWebKit/537.36 (KHTML, like Gecko) Chrome/126.0.0.0 Safari/537.36","WebKit","Chrome","126.0.0.0","Windows","10.0","https://zkohudqett.cognition.run/","en-US,en;q=0.9",""
"12718","","{""Q0"":""Most countries have less than 50000 income""}","survey-multi-choice","50","530855","0.0-50.0","6","1","2024-06-25 16:09:46","327d8d61a69a55b6203573ad19e3ab64","24.62.218.82","Mozilla/5.0 (Windows NT 10.0; Win64; x64) AppleWebKit/537.36 (KHTML, like Gecko) Chrome/126.0.0.0 Safari/537.36","WebKit","Chrome","126.0.0.0","Windows","10.0","https://zkohudqett.cognition.run/","en-US,en;q=0.9","[0]"
"null","<img src=""RetrieveValue-Scatter-Mark.png"" style=""max-width:80%; margin:10px;"">","null","html-keyboard-response","51","540859","0.0-51.0","6","1","2024-06-25 16:09:46","327d8d61a69a55b6203573ad19e3ab64","24.62.218.82","Mozilla/5.0 (Windows NT 10.0; Win64; x64) AppleWebKit/537.36 (KHTML, like Gecko) Chrome/126.0.0.0 Safari/537.36","WebKit","Chrome","126.0.0.0","Windows","10.0","https://zkohudqett.cognition.run/","en-US,en;q=0.9",""
"null","<img src=""chart502.png"" style=""max-width:80%; margin:10px;"">","null","html-keyboard-response","52","550868","0.0-52.0","6","1","2024-06-25 16:09:46","327d8d61a69a55b6203573ad19e3ab64","24.62.218.82","Mozilla/5.0 (Windows NT 10.0; Win64; x64) AppleWebKit/537.36 (KHTML, like Gecko) Chrome/126.0.0.0 Safari/537.36","WebKit","Chrome","126.0.0.0","Windows","10.0","https://zkohudqett.cognition.run/","en-US,en;q=0.9",""
"null","<img src=""chart567.png"" style=""max-width:80%; margin:10px;"">","null","html-keyboard-response","53","560876","0.0-53.0","6","1","2024-06-25 16:09:46","327d8d61a69a55b6203573ad19e3ab64","24.62.218.82","Mozilla/5.0 (Windows NT 10.0; Win64; x64) AppleWebKit/537.36 (KHTML, like Gecko) Chrome/126.0.0.0 Safari/537.36","WebKit","Chrome","126.0.0.0","Windows","10.0","https://zkohudqett.cognition.run/","en-US,en;q=0.9",""
"13851","","{""Q0"":""Car A has about 160 horsepower and runs 15 miles per gallon""}","survey-multi-choice","54","574730","0.0-54.0","6","1","2024-06-25 16:09:46","327d8d61a69a55b6203573ad19e3ab64","24.62.218.82","Mozilla/5.0 (Windows NT 10.0; Win64; x64) AppleWebKit/537.36 (KHTML, like Gecko) Chrome/126.0.0.0 Safari/537.36","WebKit","Chrome","126.0.0.0","Windows","10.0","https://zkohudqett.cognition.run/","en-US,en;q=0.9","[0]"
"null","<img src=""chart342.png"" style=""max-width:80%; margin:10px;"">","null","html-keyboard-response","55","584743","0.0-55.0","6","1","2024-06-25 16:09:46","327d8d61a69a55b6203573ad19e3ab64","24.62.218.82","Mozilla/5.0 (Windows NT 10.0; Win64; x64) AppleWebKit/537.36 (KHTML, like Gecko) Chrome/126.0.0.0 Safari/537.36","WebKit","Chrome","126.0.0.0","Windows","10.0","https://zkohudqett.cognition.run/","en-US,en;q=0.9",""
"null","<img src=""Trend-Scatter-Mark.png"" style=""max-width:80%; margin:10px;"">","null","html-keyboard-response","56","594747","0.0-56.0","6","1","2024-06-25 16:09:46","327d8d61a69a55b6203573ad19e3ab64","24.62.218.82","Mozilla/5.0 (Windows NT 10.0; Win64; x64) AppleWebKit/537.36 (KHTML, like Gecko) Chrome/126.0.0.0 Safari/537.36","WebKit","Chrome","126.0.0.0","Windows","10.0","https://zkohudqett.cognition.run/","en-US,en;q=0.9",""
"null","<img src=""chart523.png"" style=""max-width:80%; margin:10px;"">","null","html-keyboard-response","57","604759","0.0-57.0","6","1","2024-06-25 16:09:46","327d8d61a69a55b6203573ad19e3ab64","24.62.218.82","Mozilla/5.0 (Windows NT 10.0; Win64; x64) AppleWebKit/537.36 (KHTML, like Gecko) Chrome/126.0.0.0 Safari/537.36","WebKit","Chrome","126.0.0.0","Windows","10.0","https://zkohudqett.cognition.run/","en-US,en;q=0.9",""
"12588","","{""Q0"":""The rotten tomatoes rating is related to IMDB rating""}","survey-multi-choice","58","617350","0.0-58.0","6","1","2024-06-25 16:09:46","327d8d61a69a55b6203573ad19e3ab64","24.62.218.82","Mozilla/5.0 (Windows NT 10.0; Win64; x64) AppleWebKit/537.36 (KHTML, like Gecko) Chrome/126.0.0.0 Safari/537.36","WebKit","Chrome","126.0.0.0","Windows","10.0","https://zkohudqett.cognition.run/","en-US,en;q=0.9","[0]"
"null","<img src=""Compare-Scatter-Text.png"" style=""max-width:80%; margin:10px;"">","null","html-keyboard-response","59","627355","0.0-59.0","6","1","2024-06-25 16:09:46","327d8d61a69a55b6203573ad19e3ab64","24.62.218.82","Mozilla/5.0 (Windows NT 10.0; Win64; x64) AppleWebKit/537.36 (KHTML, like Gecko) Chrome/126.0.0.0 Safari/537.36","WebKit","Chrome","126.0.0.0","Windows","10.0","https://zkohudqett.cognition.run/","en-US,en;q=0.9",""
"null","<img src=""chart242.png"" style=""max-width:80%; margin:10px;"">","null","html-keyboard-response","60","637365","0.0-60.0","6","1","2024-06-25 16:09:46","327d8d61a69a55b6203573ad19e3ab64","24.62.218.82","Mozilla/5.0 (Windows NT 10.0; Win64; x64) AppleWebKit/537.36 (KHTML, like Gecko) Chrome/126.0.0.0 Safari/537.36","WebKit","Chrome","126.0.0.0","Windows","10.0","https://zkohudqett.cognition.run/","en-US,en;q=0.9",""
"null","<img src=""chart349.png"" style=""max-width:80%; margin:10px;"">","null","html-keyboard-response","61","647374","0.0-61.0","6","1","2024-06-25 16:09:46","327d8d61a69a55b6203573ad19e3ab64","24.62.218.82","Mozilla/5.0 (Windows NT 10.0; Win64; x64) AppleWebKit/537.36 (KHTML, like Gecko) Chrome/126.0.0.0 Safari/537.36","WebKit","Chrome","126.0.0.0","Windows","10.0","https://zkohudqett.cognition.run/","en-US,en;q=0.9",""
"11568","","{""Q0"":""Penguin A has larger mass and longer beak than penguin B""}","survey-multi-choice","62","658943","0.0-62.0","6","1","2024-06-25 16:09:46","327d8d61a69a55b6203573ad19e3ab64","24.62.218.82","Mozilla/5.0 (Windows NT 10.0; Win64; x64) AppleWebKit/537.36 (KHTML, like Gecko) Chrome/126.0.0.0 Safari/537.36","WebKit","Chrome","126.0.0.0","Windows","10.0","https://zkohudqett.cognition.run/","en-US,en;q=0.9","[0]"
