"width","height","webaudio","browser","browser_version","mobile","os","fullscreen","vsync_rate","webcam","microphone","trial_type","trial_index","time_elapsed","internal_node_id","run_id","condition","recorded_at","source_code_version","ip","user_agent","device","platform","platform_version","referer","accept_language","rt","response","success","item_width_mm","item_height_mm","item_width_px","px2mm","scale_factor","stimulus","question_order"
"2560","1355","true","Firefox","128.0","false","Mac OS","true","60.06","true","true","browser-check","0","3774","0.0-0.0","1232","1","2024-07-29 19:14:23","b0e02d76891de4098917a4775b26ae70","68.175.48.139","Mozilla/5.0 (Macintosh; Intel Mac OS X 10.15; rv:128.0) Gecko/20100101 Firefox/128.0","Macintosh","OS X","10.15","https://wvbvqp7xwd.cognition.run/","en-US,en;q=0.5","","","","","","","","","",""
"","","","Firefox","128.0","","","","","","","survey-text","1","11300","0.0-1.0","1232","1","2024-07-29 19:14:23","b0e02d76891de4098917a4775b26ae70","68.175.48.139","Mozilla/5.0 (Macintosh; Intel Mac OS X 10.15; rv:128.0) Gecko/20100101 Firefox/128.0","Macintosh","OS X","10.15","https://wvbvqp7xwd.cognition.run/","en-US,en;q=0.5","7523","{""Q0"":""60fdf01326f76cc0c5be3d2f""}","","","","","","","",""
"","","","Firefox","128.0","","","","","","","fullscreen","2","16750","0.0-2.0","1232","1","2024-07-29 19:14:23","b0e02d76891de4098917a4775b26ae70","68.175.48.139","Mozilla/5.0 (Macintosh; Intel Mac OS X 10.15; rv:128.0) Gecko/20100101 Firefox/128.0","Macintosh","OS X","10.15","https://wvbvqp7xwd.cognition.run/","en-US,en;q=0.5","4442","","true","","","","","","",""
"","","","Firefox","128.0","","","","","","","virtual-chinrest","3","23874","0.0-3.0","1232","1","2024-07-29 19:14:23","b0e02d76891de4098917a4775b26ae70","68.175.48.139","Mozilla/5.0 (Macintosh; Intel Mac OS X 10.15; rv:128.0) Gecko/20100101 Firefox/128.0","Macintosh","OS X","10.15","https://wvbvqp7xwd.cognition.run/","en-US,en;q=0.5","7123","","","85.6","53.98","428.082191780822","5","0.584","",""
"","","","Firefox","128.0","","","","","","","html-button-response","4","31337","0.0-4.0","1232","1","2024-07-29 19:14:23","b0e02d76891de4098917a4775b26ae70","68.175.48.139","Mozilla/5.0 (Macintosh; Intel Mac OS X 10.15; rv:128.0) Gecko/20100101 Firefox/128.0","Macintosh","OS X","10.15","https://wvbvqp7xwd.cognition.run/","en-US,en;q=0.5","7461","0","","","","","","","
    <p>If the measurements were done correctly, the square below should be 10 cm x 10 cm.</p>
    <div style=""background-color: black; width: 500px; height: 500px; margin: 20px auto;""></div>
    ",""
"","","","Firefox","128.0","","","","","","","survey-multi-choice","5","37204","0.0-5.0","1232","1","2024-07-29 19:14:23","b0e02d76891de4098917a4775b26ae70","68.175.48.139","Mozilla/5.0 (Macintosh; Intel Mac OS X 10.15; rv:128.0) Gecko/20100101 Firefox/128.0","Macintosh","OS X","10.15","https://wvbvqp7xwd.cognition.run/","en-US,en;q=0.5","5866","{""Q0"":""durian""}","","","","","","","","[0]"
"","","","Firefox","128.0","","","","","","","html-button-response","6","38652","0.0-6.0","1232","1","2024-07-29 19:14:23","b0e02d76891de4098917a4775b26ae70","68.175.48.139","Mozilla/5.0 (Macintosh; Intel Mac OS X 10.15; rv:128.0) Gecko/20100101 Firefox/128.0","Macintosh","OS X","10.15","https://wvbvqp7xwd.cognition.run/","en-US,en;q=0.5","1446","0","","","","","","","<p>Great! You passed the attention check. Now let's begin!</p>",""
"","","","Firefox","128.0","","","","","","","html-button-response","7","42127","0.0-7.0","1232","1","2024-07-29 19:14:23","b0e02d76891de4098917a4775b26ae70","68.175.48.139","Mozilla/5.0 (Macintosh; Intel Mac OS X 10.15; rv:128.0) Gecko/20100101 Firefox/128.0","Macintosh","OS X","10.15","https://wvbvqp7xwd.cognition.run/","en-US,en;q=0.5","3472","0","","","","","","","<p>In this experiment, you will see 15 dashboards, each for 20 seconds.</p> <p> You need to <b>remember the data fact</b> shown on the dashboard, and try to recall whether it is <b>True or False</b> later.</p>",""
"","","","Firefox","128.0","","","","","","","html-button-response","8","52609","0.0-8.0","1232","1","2024-07-29 19:14:23","b0e02d76891de4098917a4775b26ae70","68.175.48.139","Mozilla/5.0 (Macintosh; Intel Mac OS X 10.15; rv:128.0) Gecko/20100101 Firefox/128.0","Macintosh","OS X","10.15","https://wvbvqp7xwd.cognition.run/","en-US,en;q=0.5","10481","0","","","","","","","<p>Your response will be collected and evaluated. If any irregularities are found (such as selecting the same answer for all questions or displaying very low overall accuracy), you may not receive payment.</p>",""
"","","","Firefox","128.0","","","","","","","image-keyboard-response","9","72612","0.0-9.0","1232","1","2024-07-29 19:14:23","b0e02d76891de4098917a4775b26ae70","68.175.48.139","Mozilla/5.0 (Macintosh; Intel Mac OS X 10.15; rv:128.0) Gecko/20100101 Firefox/128.0","Macintosh","OS X","10.15","https://wvbvqp7xwd.cognition.run/","en-US,en;q=0.5","null","null","","","","","","","Filter-Bar-Opacity.png",""
"","","","Firefox","128.0","","","","","","","html-button-response","10","107204","0.0-10.0","1232","1","2024-07-29 19:14:23","b0e02d76891de4098917a4775b26ae70","68.175.48.139","Mozilla/5.0 (Macintosh; Intel Mac OS X 10.15; rv:128.0) Gecko/20100101 Firefox/128.0","Macintosh","OS X","10.15","https://wvbvqp7xwd.cognition.run/","en-US,en;q=0.5","34593","1","","","","","","","<img src=""Filter-Bar-Opacity-Blur.png"" style=""max-width:80%; margin:10px;""><br>The number of mobile customers in UK drops below 20 million from 2018 to 2019.",""
"","","","Firefox","128.0","","","","","","","html-button-response","11","112898","0.0-11.0","1232","1","2024-07-29 19:14:23","b0e02d76891de4098917a4775b26ae70","68.175.48.139","Mozilla/5.0 (Macintosh; Intel Mac OS X 10.15; rv:128.0) Gecko/20100101 Firefox/128.0","Macintosh","OS X","10.15","https://wvbvqp7xwd.cognition.run/","en-US,en;q=0.5","5690","1","","","","","","","<img src=""Filter-Bar-Opacity-Blur.png"" style=""max-width:80%; margin:10px;""><br>The number of hospital in the U.S. has been lower than 3500 thousands since 2003",""
"","","","Firefox","128.0","","","","","","","image-keyboard-response","12","132905","0.0-12.0","1232","1","2024-07-29 19:14:23","b0e02d76891de4098917a4775b26ae70","68.175.48.139","Mozilla/5.0 (Macintosh; Intel Mac OS X 10.15; rv:128.0) Gecko/20100101 Firefox/128.0","Macintosh","OS X","10.15","https://wvbvqp7xwd.cognition.run/","en-US,en;q=0.5","null","null","","","","","","","Range-Bar-Shade.png",""
"","","","Firefox","128.0","","","","","","","html-button-response","13","136551","0.0-13.0","1232","1","2024-07-29 19:14:23","b0e02d76891de4098917a4775b26ae70","68.175.48.139","Mozilla/5.0 (Macintosh; Intel Mac OS X 10.15; rv:128.0) Gecko/20100101 Firefox/128.0","Macintosh","OS X","10.15","https://wvbvqp7xwd.cognition.run/","en-US,en;q=0.5","3645","0","","","","","","","<img src=""Range-Bar-Shade-Blur.png"" style=""max-width:80%; margin:10px;""><br>People from most Asian countries spent 50 to 70 hours on smartphones.",""
"","","","Firefox","128.0","","","","","","","html-button-response","14","140701","0.0-14.0","1232","1","2024-07-29 19:14:23","b0e02d76891de4098917a4775b26ae70","68.175.48.139","Mozilla/5.0 (Macintosh; Intel Mac OS X 10.15; rv:128.0) Gecko/20100101 Firefox/128.0","Macintosh","OS X","10.15","https://wvbvqp7xwd.cognition.run/","en-US,en;q=0.5","4149","0","","","","","","","<img src=""Range-Bar-Shade-Blur.png"" style=""max-width:80%; margin:10px;""><br>Since 2014, the unit sales is between 0.5 and 1.4 milion",""
"","","","Firefox","128.0","","","","","","","image-keyboard-response","15","160706","0.0-15.0","1232","1","2024-07-29 19:14:23","b0e02d76891de4098917a4775b26ae70","68.175.48.139","Mozilla/5.0 (Macintosh; Intel Mac OS X 10.15; rv:128.0) Gecko/20100101 Firefox/128.0","Macintosh","OS X","10.15","https://wvbvqp7xwd.cognition.run/","en-US,en;q=0.5","null","null","","","","","","","RetrieveValue-Bar-Text.png",""
"","","","Firefox","128.0","","","","","","","html-button-response","16","165480","0.0-16.0","1232","1","2024-07-29 19:14:23","b0e02d76891de4098917a4775b26ae70","68.175.48.139","Mozilla/5.0 (Macintosh; Intel Mac OS X 10.15; rv:128.0) Gecko/20100101 Firefox/128.0","Macintosh","OS X","10.15","https://wvbvqp7xwd.cognition.run/","en-US,en;q=0.5","4773","0","","","","","","","<img src=""RetrieveValue-Bar-Text-Blur.png"" style=""max-width:80%; margin:10px;""><br>In 2016, the national debt of Ireland reached the highest.",""
"","","","Firefox","128.0","","","","","","","html-button-response","17","169712","0.0-17.0","1232","1","2024-07-29 19:14:23","b0e02d76891de4098917a4775b26ae70","68.175.48.139","Mozilla/5.0 (Macintosh; Intel Mac OS X 10.15; rv:128.0) Gecko/20100101 Firefox/128.0","Macintosh","OS X","10.15","https://wvbvqp7xwd.cognition.run/","en-US,en;q=0.5","4232","0","","","","","","","<img src=""RetrieveValue-Bar-Text-Blur.png"" style=""max-width:80%; margin:10px;""><br>In 2007, Waste Management operating value is around 5000 million dollars.",""
