"width","height","webaudio","browser","browser_version","mobile","os","fullscreen","vsync_rate","webcam","microphone","trial_type","trial_index","time_elapsed","internal_node_id","run_id","condition","recorded_at","source_code_version","ip","user_agent","device","platform","platform_version","referer","accept_language","rt","response","success","item_width_mm","item_height_mm","item_width_px","px2mm","scale_factor","stimulus","question_order","init_locations","moves","final_locations"
"2001","1149","true","Opera","109.0.0.0","false","Mac OS","true","121.56","true","true","browser-check","0","501","0.0-0.0","2540","1","2024-08-12 17:06:27","b0e02d76891de4098917a4775b26ae70","174.73.14.47","Mozilla/5.0 (Macintosh; Intel Mac OS X 10_15_7) AppleWebKit/537.36 (KHTML, like Gecko) Chrome/123.0.0.0 Safari/537.36 OPR/109.0.0.0 (Edition std-2)","Macintosh","OS X","10_15_7","https://wvbvqp7xwd.cognition.run/","en-US,en;q=0.9","","","","","","","","","","","","",""
"","","","Opera","109.0.0.0","","","","","","","survey-text","1","3838","0.0-1.0","2540","1","2024-08-12 17:06:27","b0e02d76891de4098917a4775b26ae70","174.73.14.47","Mozilla/5.0 (Macintosh; Intel Mac OS X 10_15_7) AppleWebKit/537.36 (KHTML, like Gecko) Chrome/123.0.0.0 Safari/537.36 OPR/109.0.0.0 (Edition std-2)","Macintosh","OS X","10_15_7","https://wvbvqp7xwd.cognition.run/","en-US,en;q=0.9","3333","{""Q0"":""664a85285a37ffaabc5b0205""}","","","","","","","","","","",""
"","","","Opera","109.0.0.0","","","","","","","fullscreen","2","10194","0.0-2.0","2540","1","2024-08-12 17:06:27","b0e02d76891de4098917a4775b26ae70","174.73.14.47","Mozilla/5.0 (Macintosh; Intel Mac OS X 10_15_7) AppleWebKit/537.36 (KHTML, like Gecko) Chrome/123.0.0.0 Safari/537.36 OPR/109.0.0.0 (Edition std-2)","Macintosh","OS X","10_15_7","https://wvbvqp7xwd.cognition.run/","en-US,en;q=0.9","5352","","true","","","","","","","","","",""
"","","","Opera","109.0.0.0","","","","","","","virtual-chinrest","3","71517","0.0-3.0","2540","1","2024-08-12 17:06:27","b0e02d76891de4098917a4775b26ae70","174.73.14.47","Mozilla/5.0 (Macintosh; Intel Mac OS X 10_15_7) AppleWebKit/537.36 (KHTML, like Gecko) Chrome/123.0.0.0 Safari/537.36 OPR/109.0.0.0 (Edition std-2)","Macintosh","OS X","10_15_7","https://wvbvqp7xwd.cognition.run/","en-US,en;q=0.9","61318","","","85.6","53.98","428.0936454849498","5","1.1960000000000002","","","","",""
"","","","Opera","109.0.0.0","","","","","","","html-button-response","4","76152","0.0-4.0","2540","1","2024-08-12 17:06:27","b0e02d76891de4098917a4775b26ae70","174.73.14.47","Mozilla/5.0 (Macintosh; Intel Mac OS X 10_15_7) AppleWebKit/537.36 (KHTML, like Gecko) Chrome/123.0.0.0 Safari/537.36 OPR/109.0.0.0 (Edition std-2)","Macintosh","OS X","10_15_7","https://wvbvqp7xwd.cognition.run/","en-US,en;q=0.9","4631","0","","","","","","","
    <p>If the measurements were done correctly, the square below should be 10 cm x 10 cm.</p>
    <div style=""background-color: black; width: 500px; height: 500px; margin: 20px auto;""></div>
    ","","","",""
"","","","Opera","109.0.0.0","","","","","","","survey-multi-choice","5","80894","0.0-5.0","2540","1","2024-08-12 17:06:27","b0e02d76891de4098917a4775b26ae70","174.73.14.47","Mozilla/5.0 (Macintosh; Intel Mac OS X 10_15_7) AppleWebKit/537.36 (KHTML, like Gecko) Chrome/123.0.0.0 Safari/537.36 OPR/109.0.0.0 (Edition std-2)","Macintosh","OS X","10_15_7","https://wvbvqp7xwd.cognition.run/","en-US,en;q=0.9","4739","{""Q0"":""durian""}","","","","","","","","[0]","","",""
"","","","Opera","109.0.0.0","","","","","","","html-button-response","6","83031","0.0-6.0","2540","1","2024-08-12 17:06:27","b0e02d76891de4098917a4775b26ae70","174.73.14.47","Mozilla/5.0 (Macintosh; Intel Mac OS X 10_15_7) AppleWebKit/537.36 (KHTML, like Gecko) Chrome/123.0.0.0 Safari/537.36 OPR/109.0.0.0 (Edition std-2)","Macintosh","OS X","10_15_7","https://wvbvqp7xwd.cognition.run/","en-US,en;q=0.9","2133","0","","","","","","","<p>Great! You passed the attention check. Now let's begin!</p>","","","",""
"","","","Opera","109.0.0.0","","","","","","","html-button-response","7","88910","0.0-7.0","2540","1","2024-08-12 17:06:27","b0e02d76891de4098917a4775b26ae70","174.73.14.47","Mozilla/5.0 (Macintosh; Intel Mac OS X 10_15_7) AppleWebKit/537.36 (KHTML, like Gecko) Chrome/123.0.0.0 Safari/537.36 OPR/109.0.0.0 (Edition std-2)","Macintosh","OS X","10_15_7","https://wvbvqp7xwd.cognition.run/","en-US,en;q=0.9","5878","0","","","","","","","<p>In this experiment, you will see 15 dashboards, each for 20 seconds.</p> <p> You need to <b>remember the data fact</b> shown on the dashboard, and try to recall whether it is <b>True or False</b> later.</p>","","","",""
"","","","Opera","109.0.0.0","","","","","","","html-button-response","8","94984","0.0-8.0","2540","1","2024-08-12 17:06:27","b0e02d76891de4098917a4775b26ae70","174.73.14.47","Mozilla/5.0 (Macintosh; Intel Mac OS X 10_15_7) AppleWebKit/537.36 (KHTML, like Gecko) Chrome/123.0.0.0 Safari/537.36 OPR/109.0.0.0 (Edition std-2)","Macintosh","OS X","10_15_7","https://wvbvqp7xwd.cognition.run/","en-US,en;q=0.9","6072","0","","","","","","","<p>Your response will be collected and evaluated. If any irregularities are found (such as selecting the same answer for all questions or displaying very low overall accuracy), you may not receive payment.</p>","","","",""
"","","","Opera","109.0.0.0","","","","","","","image-keyboard-response","9","114989","0.0-9.0","2540","1","2024-08-12 17:06:27","b0e02d76891de4098917a4775b26ae70","174.73.14.47","Mozilla/5.0 (Macintosh; Intel Mac OS X 10_15_7) AppleWebKit/537.36 (KHTML, like Gecko) Chrome/123.0.0.0 Safari/537.36 OPR/109.0.0.0 (Edition std-2)","Macintosh","OS X","10_15_7","https://wvbvqp7xwd.cognition.run/","en-US,en;q=0.9","null","null","","","","","","","Filter-Bar-Shade.png","","","",""
"","","","Opera","109.0.0.0","","","","","","","html-button-response","10","123088","0.0-10.0","2540","1","2024-08-12 17:06:27","b0e02d76891de4098917a4775b26ae70","174.73.14.47","Mozilla/5.0 (Macintosh; Intel Mac OS X 10_15_7) AppleWebKit/537.36 (KHTML, like Gecko) Chrome/123.0.0.0 Safari/537.36 OPR/109.0.0.0 (Edition std-2)","Macintosh","OS X","10_15_7","https://wvbvqp7xwd.cognition.run/","en-US,en;q=0.9","8096","0","","","","","","","<img src=""Filter-Bar-Shade-Blur.png"" style=""max-width:80%; margin:10px;""><br>The number of mobile customers in UK drops below 20 million from 2018 to 2019.","","","",""
"","","","Opera","109.0.0.0","","","","","","","html-button-response","11","129762","0.0-11.0","2540","1","2024-08-12 17:06:27","b0e02d76891de4098917a4775b26ae70","174.73.14.47","Mozilla/5.0 (Macintosh; Intel Mac OS X 10_15_7) AppleWebKit/537.36 (KHTML, like Gecko) Chrome/123.0.0.0 Safari/537.36 OPR/109.0.0.0 (Edition std-2)","Macintosh","OS X","10_15_7","https://wvbvqp7xwd.cognition.run/","en-US,en;q=0.9","6672","0","","","","","","","<img src=""Filter-Bar-Shade-Blur.png"" style=""max-width:80%; margin:10px;""><br>The number of hospitals in the U.S. has been higher than 3500 thousands since 2014.","","","",""
"","","","Opera","109.0.0.0","","","","","","","image-keyboard-response","12","149765","0.0-12.0","2540","1","2024-08-12 17:06:27","b0e02d76891de4098917a4775b26ae70","174.73.14.47","Mozilla/5.0 (Macintosh; Intel Mac OS X 10_15_7) AppleWebKit/537.36 (KHTML, like Gecko) Chrome/123.0.0.0 Safari/537.36 OPR/109.0.0.0 (Edition std-2)","Macintosh","OS X","10_15_7","https://wvbvqp7xwd.cognition.run/","en-US,en;q=0.9","null","null","","","","","","","Range-Bar-Bound.png","","","",""
"","","","Opera","109.0.0.0","","","","","","","html-button-response","13","162309","0.0-13.0","2540","1","2024-08-12 17:06:27","b0e02d76891de4098917a4775b26ae70","174.73.14.47","Mozilla/5.0 (Macintosh; Intel Mac OS X 10_15_7) AppleWebKit/537.36 (KHTML, like Gecko) Chrome/123.0.0.0 Safari/537.36 OPR/109.0.0.0 (Edition std-2)","Macintosh","OS X","10_15_7","https://wvbvqp7xwd.cognition.run/","en-US,en;q=0.9","12540","0","","","","","","","<img src=""Range-Bar-Bound-Blur.png"" style=""max-width:80%; margin:10px;""><br>People from most Asian countries spent 80 to 100 hours on smartphones.","","","",""
"","","","Opera","109.0.0.0","","","","","","","html-button-response","14","167521","0.0-14.0","2540","1","2024-08-12 17:06:27","b0e02d76891de4098917a4775b26ae70","174.73.14.47","Mozilla/5.0 (Macintosh; Intel Mac OS X 10_15_7) AppleWebKit/537.36 (KHTML, like Gecko) Chrome/123.0.0.0 Safari/537.36 OPR/109.0.0.0 (Edition std-2)","Macintosh","OS X","10_15_7","https://wvbvqp7xwd.cognition.run/","en-US,en;q=0.9","5209","0","","","","","","","<img src=""Range-Bar-Bound-Blur.png"" style=""max-width:80%; margin:10px;""><br>Since 2014, the unit sales are between 2 and 3 million.","","","",""
"","","","Opera","109.0.0.0","","","","","","","image-keyboard-response","15","187523","0.0-15.0","2540","1","2024-08-12 17:06:27","b0e02d76891de4098917a4775b26ae70","174.73.14.47","Mozilla/5.0 (Macintosh; Intel Mac OS X 10_15_7) AppleWebKit/537.36 (KHTML, like Gecko) Chrome/123.0.0.0 Safari/537.36 OPR/109.0.0.0 (Edition std-2)","Macintosh","OS X","10_15_7","https://wvbvqp7xwd.cognition.run/","en-US,en;q=0.9","null","null","","","","","","","RetrieveValue-Bar-Color.png","","","",""
"","","","Opera","109.0.0.0","","","","","","","html-button-response","16","195422","0.0-16.0","2540","1","2024-08-12 17:06:27","b0e02d76891de4098917a4775b26ae70","174.73.14.47","Mozilla/5.0 (Macintosh; Intel Mac OS X 10_15_7) AppleWebKit/537.36 (KHTML, like Gecko) Chrome/123.0.0.0 Safari/537.36 OPR/109.0.0.0 (Edition std-2)","Macintosh","OS X","10_15_7","https://wvbvqp7xwd.cognition.run/","en-US,en;q=0.9","7896","0","","","","","","","<img src=""RetrieveValue-Bar-Color-Blur.png"" style=""max-width:80%; margin:10px;""><br>In 2016, the national debt of Ireland reached the highest.","","","",""
"","","","Opera","109.0.0.0","","","","","","","html-button-response","17","200553","0.0-17.0","2540","1","2024-08-12 17:06:27","b0e02d76891de4098917a4775b26ae70","174.73.14.47","Mozilla/5.0 (Macintosh; Intel Mac OS X 10_15_7) AppleWebKit/537.36 (KHTML, like Gecko) Chrome/123.0.0.0 Safari/537.36 OPR/109.0.0.0 (Edition std-2)","Macintosh","OS X","10_15_7","https://wvbvqp7xwd.cognition.run/","en-US,en;q=0.9","5128","0","","","","","","","<img src=""RetrieveValue-Bar-Color-Blur.png"" style=""max-width:80%; margin:10px;""><br>In 2007, Waste Management operating value is around 5000 million dollars.","","","",""
"","","","Opera","109.0.0.0","","","","","","","image-keyboard-response","18","220556","0.0-18.0","2540","1","2024-08-12 17:06:27","b0e02d76891de4098917a4775b26ae70","174.73.14.47","Mozilla/5.0 (Macintosh; Intel Mac OS X 10_15_7) AppleWebKit/537.36 (KHTML, like Gecko) Chrome/123.0.0.0 Safari/537.36 OPR/109.0.0.0 (Edition std-2)","Macintosh","OS X","10_15_7","https://wvbvqp7xwd.cognition.run/","en-US,en;q=0.9","null","null","","","","","","","Trend-Bar-Bound.png","","","",""
"","","","Opera","109.0.0.0","","","","","","","html-button-response","19","227641","0.0-19.0","2540","1","2024-08-12 17:06:27","b0e02d76891de4098917a4775b26ae70","174.73.14.47","Mozilla/5.0 (Macintosh; Intel Mac OS X 10_15_7) AppleWebKit/537.36 (KHTML, like Gecko) Chrome/123.0.0.0 Safari/537.36 OPR/109.0.0.0 (Edition std-2)","Macintosh","OS X","10_15_7","https://wvbvqp7xwd.cognition.run/","en-US,en;q=0.9","7081","1","","","","","","","<img src=""Trend-Bar-Bound-Blur.png"" style=""max-width:80%; margin:10px;""><br>The employee number of Brunswick investment banking increased from 2014 to 2017","","","",""
"","","","Opera","109.0.0.0","","","","","","","html-button-response","20","231556","0.0-20.0","2540","1","2024-08-12 17:06:27","b0e02d76891de4098917a4775b26ae70","174.73.14.47","Mozilla/5.0 (Macintosh; Intel Mac OS X 10_15_7) AppleWebKit/537.36 (KHTML, like Gecko) Chrome/123.0.0.0 Safari/537.36 OPR/109.0.0.0 (Edition std-2)","Macintosh","OS X","10_15_7","https://wvbvqp7xwd.cognition.run/","en-US,en;q=0.9","3912","0","","","","","","","<img src=""Trend-Bar-Bound-Blur.png"" style=""max-width:80%; margin:10px;""><br>The alchol consumption in UK has been droping since 2010","","","",""
"","","","Opera","109.0.0.0","","","","","","","image-keyboard-response","21","251558","0.0-21.0","2540","1","2024-08-12 17:06:27","b0e02d76891de4098917a4775b26ae70","174.73.14.47","Mozilla/5.0 (Macintosh; Intel Mac OS X 10_15_7) AppleWebKit/537.36 (KHTML, like Gecko) Chrome/123.0.0.0 Safari/537.36 OPR/109.0.0.0 (Edition std-2)","Macintosh","OS X","10_15_7","https://wvbvqp7xwd.cognition.run/","en-US,en;q=0.9","null","null","","","","","","","Compare-Bar-Color.png","","","",""
"","","","Opera","109.0.0.0","","","","","","","html-button-response","22","260527","0.0-22.0","2540","1","2024-08-12 17:06:27","b0e02d76891de4098917a4775b26ae70","174.73.14.47","Mozilla/5.0 (Macintosh; Intel Mac OS X 10_15_7) AppleWebKit/537.36 (KHTML, like Gecko) Chrome/123.0.0.0 Safari/537.36 OPR/109.0.0.0 (Edition std-2)","Macintosh","OS X","10_15_7","https://wvbvqp7xwd.cognition.run/","en-US,en;q=0.9","8966","1","","","","","","","<img src=""Compare-Bar-Color-Blur.png"" style=""max-width:80%; margin:10px;""><br>China is spending less energy than the U.S. in 2019.","","","",""
"","","","Opera","109.0.0.0","","","","","","","html-button-response","23","268775","0.0-23.0","2540","1","2024-08-12 17:06:27","b0e02d76891de4098917a4775b26ae70","174.73.14.47","Mozilla/5.0 (Macintosh; Intel Mac OS X 10_15_7) AppleWebKit/537.36 (KHTML, like Gecko) Chrome/123.0.0.0 Safari/537.36 OPR/109.0.0.0 (Edition std-2)","Macintosh","OS X","10_15_7","https://wvbvqp7xwd.cognition.run/","en-US,en;q=0.9","8246","0","","","","","","","<img src=""Compare-Bar-Color-Blur.png"" style=""max-width:80%; margin:10px;""><br>The operating profit of Roche group is lower in 2008 than in 2018","","","",""
"","","","Opera","109.0.0.0","","","","","","","image-keyboard-response","24","288781","0.0-24.0","2540","1","2024-08-12 17:06:27","b0e02d76891de4098917a4775b26ae70","174.73.14.47","Mozilla/5.0 (Macintosh; Intel Mac OS X 10_15_7) AppleWebKit/537.36 (KHTML, like Gecko) Chrome/123.0.0.0 Safari/537.36 OPR/109.0.0.0 (Edition std-2)","Macintosh","OS X","10_15_7","https://wvbvqp7xwd.cognition.run/","en-US,en;q=0.9","null","null","","","","","","","Filter-Line-Shade.png","","","",""
"","","","Opera","109.0.0.0","","","","","","","html-button-response","25","293748","0.0-25.0","2540","1","2024-08-12 17:06:27","b0e02d76891de4098917a4775b26ae70","174.73.14.47","Mozilla/5.0 (Macintosh; Intel Mac OS X 10_15_7) AppleWebKit/537.36 (KHTML, like Gecko) Chrome/123.0.0.0 Safari/537.36 OPR/109.0.0.0 (Edition std-2)","Macintosh","OS X","10_15_7","https://wvbvqp7xwd.cognition.run/","en-US,en;q=0.9","4960","0","","","","","","","<img src=""Filter-Line-Shade-Blur.png"" style=""max-width:80%; margin:10px;""><br>The number of hospital in the U.S. has been lower than 3500 thousands since 2003","","","",""
"","","","Opera","109.0.0.0","","","","","","","html-button-response","26","298084","0.0-26.0","2540","1","2024-08-12 17:06:27","b0e02d76891de4098917a4775b26ae70","174.73.14.47","Mozilla/5.0 (Macintosh; Intel Mac OS X 10_15_7) AppleWebKit/537.36 (KHTML, like Gecko) Chrome/123.0.0.0 Safari/537.36 OPR/109.0.0.0 (Edition std-2)","Macintosh","OS X","10_15_7","https://wvbvqp7xwd.cognition.run/","en-US,en;q=0.9","4332","0","","","","","","","<img src=""Filter-Line-Shade-Blur.png"" style=""max-width:80%; margin:10px;""><br>Some penguins are heavier than 5000 g","","","",""
"","","","Opera","109.0.0.0","","","","","","","image-keyboard-response","27","318091","0.0-27.0","2540","1","2024-08-12 17:06:27","b0e02d76891de4098917a4775b26ae70","174.73.14.47","Mozilla/5.0 (Macintosh; Intel Mac OS X 10_15_7) AppleWebKit/537.36 (KHTML, like Gecko) Chrome/123.0.0.0 Safari/537.36 OPR/109.0.0.0 (Edition std-2)","Macintosh","OS X","10_15_7","https://wvbvqp7xwd.cognition.run/","en-US,en;q=0.9","null","null","","","","","","","Range-Line-Opacity.png","","","",""
"","","","Opera","109.0.0.0","","","","","","","html-button-response","28","321756","0.0-28.0","2540","1","2024-08-12 17:06:27","b0e02d76891de4098917a4775b26ae70","174.73.14.47","Mozilla/5.0 (Macintosh; Intel Mac OS X 10_15_7) AppleWebKit/537.36 (KHTML, like Gecko) Chrome/123.0.0.0 Safari/537.36 OPR/109.0.0.0 (Edition std-2)","Macintosh","OS X","10_15_7","https://wvbvqp7xwd.cognition.run/","en-US,en;q=0.9","3660","0","","","","","","","<img src=""Range-Line-Opacity-Blur.png"" style=""max-width:80%; margin:10px;""><br>Since 2014, the unit sales are between 2 and 3 million.","","","",""
"","","","Opera","109.0.0.0","","","","","","","html-button-response","29","326903","0.0-29.0","2540","1","2024-08-12 17:06:27","b0e02d76891de4098917a4775b26ae70","174.73.14.47","Mozilla/5.0 (Macintosh; Intel Mac OS X 10_15_7) AppleWebKit/537.36 (KHTML, like Gecko) Chrome/123.0.0.0 Safari/537.36 OPR/109.0.0.0 (Edition std-2)","Macintosh","OS X","10_15_7","https://wvbvqp7xwd.cognition.run/","en-US,en;q=0.9","5144","0","","","","","","","<img src=""Range-Line-Opacity-Blur.png"" style=""max-width:80%; margin:10px;""><br>Most countries have less than 50000 income","","","",""
"","","","Opera","109.0.0.0","","","","","","","image-keyboard-response","30","346906","0.0-30.0","2540","1","2024-08-12 17:06:27","b0e02d76891de4098917a4775b26ae70","174.73.14.47","Mozilla/5.0 (Macintosh; Intel Mac OS X 10_15_7) AppleWebKit/537.36 (KHTML, like Gecko) Chrome/123.0.0.0 Safari/537.36 OPR/109.0.0.0 (Edition std-2)","Macintosh","OS X","10_15_7","https://wvbvqp7xwd.cognition.run/","en-US,en;q=0.9","null","null","","","","","","","RetrieveValue-Line-Color.png","","","",""
"","","","Opera","109.0.0.0","","","","","","","html-button-response","31","350405","0.0-31.0","2540","1","2024-08-12 17:06:27","b0e02d76891de4098917a4775b26ae70","174.73.14.47","Mozilla/5.0 (Macintosh; Intel Mac OS X 10_15_7) AppleWebKit/537.36 (KHTML, like Gecko) Chrome/123.0.0.0 Safari/537.36 OPR/109.0.0.0 (Edition std-2)","Macintosh","OS X","10_15_7","https://wvbvqp7xwd.cognition.run/","en-US,en;q=0.9","3495","0","","","","","","","<img src=""RetrieveValue-Line-Color-Blur.png"" style=""max-width:80%; margin:10px;""><br>In 2007, Waste Management operating value is around 13000 million dollars","","","",""
"","","","Opera","109.0.0.0","","","","","","","html-button-response","32","354588","0.0-32.0","2540","1","2024-08-12 17:06:27","b0e02d76891de4098917a4775b26ae70","174.73.14.47","Mozilla/5.0 (Macintosh; Intel Mac OS X 10_15_7) AppleWebKit/537.36 (KHTML, like Gecko) Chrome/123.0.0.0 Safari/537.36 OPR/109.0.0.0 (Edition std-2)","Macintosh","OS X","10_15_7","https://wvbvqp7xwd.cognition.run/","en-US,en;q=0.9","4179","0","","","","","","","<img src=""RetrieveValue-Line-Color-Blur.png"" style=""max-width:80%; margin:10px;""><br>Car A has about 300 horsepower and runs 30 miles per gallon.","","","",""
"","","","Opera","109.0.0.0","","","","","","","image-keyboard-response","33","374590","0.0-33.0","2540","1","2024-08-12 17:06:27","b0e02d76891de4098917a4775b26ae70","174.73.14.47","Mozilla/5.0 (Macintosh; Intel Mac OS X 10_15_7) AppleWebKit/537.36 (KHTML, like Gecko) Chrome/123.0.0.0 Safari/537.36 OPR/109.0.0.0 (Edition std-2)","Macintosh","OS X","10_15_7","https://wvbvqp7xwd.cognition.run/","en-US,en;q=0.9","null","null","","","","","","","Trend-Line-Bound.png","","","",""
"","","","Opera","109.0.0.0","","","","","","","html-button-response","34","378043","0.0-34.0","2540","1","2024-08-12 17:06:27","b0e02d76891de4098917a4775b26ae70","174.73.14.47","Mozilla/5.0 (Macintosh; Intel Mac OS X 10_15_7) AppleWebKit/537.36 (KHTML, like Gecko) Chrome/123.0.0.0 Safari/537.36 OPR/109.0.0.0 (Edition std-2)","Macintosh","OS X","10_15_7","https://wvbvqp7xwd.cognition.run/","en-US,en;q=0.9","3449","1","","","","","","","<img src=""Trend-Line-Bound-Blur.png"" style=""max-width:80%; margin:10px;""><br>The alchol consumption in UK has been droping since 2010","","","",""
"","","","Opera","109.0.0.0","","","","","","","html-button-response","35","381336","0.0-35.0","2540","1","2024-08-12 17:06:27","b0e02d76891de4098917a4775b26ae70","174.73.14.47","Mozilla/5.0 (Macintosh; Intel Mac OS X 10_15_7) AppleWebKit/537.36 (KHTML, like Gecko) Chrome/123.0.0.0 Safari/537.36 OPR/109.0.0.0 (Edition std-2)","Macintosh","OS X","10_15_7","https://wvbvqp7xwd.cognition.run/","en-US,en;q=0.9","3290","0","","","","","","","<img src=""Trend-Line-Bound-Blur.png"" style=""max-width:80%; margin:10px;""><br>The rotten tomatoes rating is related to IMDB rating","","","",""
"","","","Opera","109.0.0.0","","","","","","","image-keyboard-response","36","401338","0.0-36.0","2540","1","2024-08-12 17:06:27","b0e02d76891de4098917a4775b26ae70","174.73.14.47","Mozilla/5.0 (Macintosh; Intel Mac OS X 10_15_7) AppleWebKit/537.36 (KHTML, like Gecko) Chrome/123.0.0.0 Safari/537.36 OPR/109.0.0.0 (Edition std-2)","Macintosh","OS X","10_15_7","https://wvbvqp7xwd.cognition.run/","en-US,en;q=0.9","null","null","","","","","","","Compare-Line-Color.png","","","",""
"","","","Opera","109.0.0.0","","","","","","","html-button-response","37","406413","0.0-37.0","2540","1","2024-08-12 17:06:27","b0e02d76891de4098917a4775b26ae70","174.73.14.47","Mozilla/5.0 (Macintosh; Intel Mac OS X 10_15_7) AppleWebKit/537.36 (KHTML, like Gecko) Chrome/123.0.0.0 Safari/537.36 OPR/109.0.0.0 (Edition std-2)","Macintosh","OS X","10_15_7","https://wvbvqp7xwd.cognition.run/","en-US,en;q=0.9","5068","0","","","","","","","<img src=""Compare-Line-Color-Blur.png"" style=""max-width:80%; margin:10px;""><br>The operating profit of Roche group is lower in 2008 than in 2018","","","",""
"","","","Opera","109.0.0.0","","","","","","","html-button-response","38","412214","0.0-38.0","2540","1","2024-08-12 17:06:27","b0e02d76891de4098917a4775b26ae70","174.73.14.47","Mozilla/5.0 (Macintosh; Intel Mac OS X 10_15_7) AppleWebKit/537.36 (KHTML, like Gecko) Chrome/123.0.0.0 Safari/537.36 OPR/109.0.0.0 (Edition std-2)","Macintosh","OS X","10_15_7","https://wvbvqp7xwd.cognition.run/","en-US,en;q=0.9","5798","0","","","","","","","<img src=""Compare-Line-Color-Blur.png"" style=""max-width:80%; margin:10px;""><br>Penguin A has larger mass and longer beak than penguin B","","","",""
"","","","Opera","109.0.0.0","","","","","","","image-keyboard-response","39","432217","0.0-39.0","2540","1","2024-08-12 17:06:27","b0e02d76891de4098917a4775b26ae70","174.73.14.47","Mozilla/5.0 (Macintosh; Intel Mac OS X 10_15_7) AppleWebKit/537.36 (KHTML, like Gecko) Chrome/123.0.0.0 Safari/537.36 OPR/109.0.0.0 (Edition std-2)","Macintosh","OS X","10_15_7","https://wvbvqp7xwd.cognition.run/","en-US,en;q=0.9","null","null","","","","","","","Filter-Scatter-Shade.png","","","",""
"","","","Opera","109.0.0.0","","","","","","","html-button-response","40","435571","0.0-40.0","2540","1","2024-08-12 17:06:27","b0e02d76891de4098917a4775b26ae70","174.73.14.47","Mozilla/5.0 (Macintosh; Intel Mac OS X 10_15_7) AppleWebKit/537.36 (KHTML, like Gecko) Chrome/123.0.0.0 Safari/537.36 OPR/109.0.0.0 (Edition std-2)","Macintosh","OS X","10_15_7","https://wvbvqp7xwd.cognition.run/","en-US,en;q=0.9","3347","0","","","","","","","<img src=""Filter-Scatter-Shade-Blur.png"" style=""max-width:80%; margin:10px;""><br>Some penguins are heavier than 5000 g","","","",""
"","","","Opera","109.0.0.0","","","","","","","html-button-response","41","440623","0.0-41.0","2540","1","2024-08-12 17:06:27","b0e02d76891de4098917a4775b26ae70","174.73.14.47","Mozilla/5.0 (Macintosh; Intel Mac OS X 10_15_7) AppleWebKit/537.36 (KHTML, like Gecko) Chrome/123.0.0.0 Safari/537.36 OPR/109.0.0.0 (Edition std-2)","Macintosh","OS X","10_15_7","https://wvbvqp7xwd.cognition.run/","en-US,en;q=0.9","5050","0","","","","","","","<img src=""Filter-Scatter-Shade-Blur.png"" style=""max-width:80%; margin:10px;""><br>The number of mobile customers in UK drops below 30 million from 2018 to 2019.","","","",""
"","","","Opera","109.0.0.0","","","","","","","image-keyboard-response","42","460626","0.0-42.0","2540","1","2024-08-12 17:06:27","b0e02d76891de4098917a4775b26ae70","174.73.14.47","Mozilla/5.0 (Macintosh; Intel Mac OS X 10_15_7) AppleWebKit/537.36 (KHTML, like Gecko) Chrome/123.0.0.0 Safari/537.36 OPR/109.0.0.0 (Edition std-2)","Macintosh","OS X","10_15_7","https://wvbvqp7xwd.cognition.run/","en-US,en;q=0.9","null","null","","","","","","","Range-Scatter-Color.png","","","",""
"","","","Opera","109.0.0.0","","","","","","","html-button-response","43","470250","0.0-43.0","2540","1","2024-08-12 17:06:27","b0e02d76891de4098917a4775b26ae70","174.73.14.47","Mozilla/5.0 (Macintosh; Intel Mac OS X 10_15_7) AppleWebKit/537.36 (KHTML, like Gecko) Chrome/123.0.0.0 Safari/537.36 OPR/109.0.0.0 (Edition std-2)","Macintosh","OS X","10_15_7","https://wvbvqp7xwd.cognition.run/","en-US,en;q=0.9","9621","0","","","","","","","<img src=""Range-Scatter-Color-Blur.png"" style=""max-width:80%; margin:10px;""><br>Most countries have less than 10000 income.","","","",""
"","","","Opera","109.0.0.0","","","","","","","html-button-response","44","476857","0.0-44.0","2540","1","2024-08-12 17:06:27","b0e02d76891de4098917a4775b26ae70","174.73.14.47","Mozilla/5.0 (Macintosh; Intel Mac OS X 10_15_7) AppleWebKit/537.36 (KHTML, like Gecko) Chrome/123.0.0.0 Safari/537.36 OPR/109.0.0.0 (Edition std-2)","Macintosh","OS X","10_15_7","https://wvbvqp7xwd.cognition.run/","en-US,en;q=0.9","6604","1","","","","","","","<img src=""Range-Scatter-Color-Blur.png"" style=""max-width:80%; margin:10px;""><br>People from most Asian countries spent 80 to 100 hours on smartphones.","","","",""
"","","","Opera","109.0.0.0","","","","","","","image-keyboard-response","45","496861","0.0-45.0","2540","1","2024-08-12 17:06:27","b0e02d76891de4098917a4775b26ae70","174.73.14.47","Mozilla/5.0 (Macintosh; Intel Mac OS X 10_15_7) AppleWebKit/537.36 (KHTML, like Gecko) Chrome/123.0.0.0 Safari/537.36 OPR/109.0.0.0 (Edition std-2)","Macintosh","OS X","10_15_7","https://wvbvqp7xwd.cognition.run/","en-US,en;q=0.9","null","null","","","","","","","RetrieveValue-Scatter-Line.png","","","",""
"","","","Opera","109.0.0.0","","","","","","","html-button-response","46","543899","0.0-46.0","2540","1","2024-08-12 17:06:27","b0e02d76891de4098917a4775b26ae70","174.73.14.47","Mozilla/5.0 (Macintosh; Intel Mac OS X 10_15_7) AppleWebKit/537.36 (KHTML, like Gecko) Chrome/123.0.0.0 Safari/537.36 OPR/109.0.0.0 (Edition std-2)","Macintosh","OS X","10_15_7","https://wvbvqp7xwd.cognition.run/","en-US,en;q=0.9","47035","0","","","","","","","<img src=""RetrieveValue-Scatter-Line-Blur.png"" style=""max-width:80%; margin:10px;""><br>Car A has about 300 horsepower and runs 30 miles per gallon.","","","",""
"","","","Opera","109.0.0.0","","","","","","","html-button-response","47","548236","0.0-47.0","2540","1","2024-08-12 17:06:27","b0e02d76891de4098917a4775b26ae70","174.73.14.47","Mozilla/5.0 (Macintosh; Intel Mac OS X 10_15_7) AppleWebKit/537.36 (KHTML, like Gecko) Chrome/123.0.0.0 Safari/537.36 OPR/109.0.0.0 (Edition std-2)","Macintosh","OS X","10_15_7","https://wvbvqp7xwd.cognition.run/","en-US,en;q=0.9","4335","0","","","","","","","<img src=""RetrieveValue-Scatter-Line-Blur.png"" style=""max-width:80%; margin:10px;""><br>In 2016, the national debt of Ireland reach the lowest.","","","",""
"","","","Opera","109.0.0.0","","","","","","","image-keyboard-response","48","568238","0.0-48.0","2540","1","2024-08-12 17:06:27","b0e02d76891de4098917a4775b26ae70","174.73.14.47","Mozilla/5.0 (Macintosh; Intel Mac OS X 10_15_7) AppleWebKit/537.36 (KHTML, like Gecko) Chrome/123.0.0.0 Safari/537.36 OPR/109.0.0.0 (Edition std-2)","Macintosh","OS X","10_15_7","https://wvbvqp7xwd.cognition.run/","en-US,en;q=0.9","null","null","","","","","","","Trend-Scatter-Shade.png","","","",""
"","","","Opera","109.0.0.0","","","","","","","html-button-response","49","582187","0.0-49.0","2540","1","2024-08-12 17:06:27","b0e02d76891de4098917a4775b26ae70","174.73.14.47","Mozilla/5.0 (Macintosh; Intel Mac OS X 10_15_7) AppleWebKit/537.36 (KHTML, like Gecko) Chrome/123.0.0.0 Safari/537.36 OPR/109.0.0.0 (Edition std-2)","Macintosh","OS X","10_15_7","https://wvbvqp7xwd.cognition.run/","en-US,en;q=0.9","13944","0","","","","","","","<img src=""Trend-Scatter-Shade-Blur.png"" style=""max-width:80%; margin:10px;""><br>The rotten tomatoes rating is not related to IMDB rating.","","","",""
"","","","Opera","109.0.0.0","","","","","","","html-button-response","50","592317","0.0-50.0","2540","1","2024-08-12 17:06:27","b0e02d76891de4098917a4775b26ae70","174.73.14.47","Mozilla/5.0 (Macintosh; Intel Mac OS X 10_15_7) AppleWebKit/537.36 (KHTML, like Gecko) Chrome/123.0.0.0 Safari/537.36 OPR/109.0.0.0 (Edition std-2)","Macintosh","OS X","10_15_7","https://wvbvqp7xwd.cognition.run/","en-US,en;q=0.9","10127","1","","","","","","","<img src=""Trend-Scatter-Shade-Blur.png"" style=""max-width:80%; margin:10px;""><br>The employee number of Brunswick investment banking increased from 2014 to 2017","","","",""
"","","","Opera","109.0.0.0","","","","","","","image-keyboard-response","51","612321","0.0-51.0","2540","1","2024-08-12 17:06:27","b0e02d76891de4098917a4775b26ae70","174.73.14.47","Mozilla/5.0 (Macintosh; Intel Mac OS X 10_15_7) AppleWebKit/537.36 (KHTML, like Gecko) Chrome/123.0.0.0 Safari/537.36 OPR/109.0.0.0 (Edition std-2)","Macintosh","OS X","10_15_7","https://wvbvqp7xwd.cognition.run/","en-US,en;q=0.9","null","null","","","","","","","Compare-Scatter-Text.png","","","",""
"","","","Opera","109.0.0.0","","","","","","","html-button-response","52","614458","0.0-52.0","2540","1","2024-08-12 17:06:27","b0e02d76891de4098917a4775b26ae70","174.73.14.47","Mozilla/5.0 (Macintosh; Intel Mac OS X 10_15_7) AppleWebKit/537.36 (KHTML, like Gecko) Chrome/123.0.0.0 Safari/537.36 OPR/109.0.0.0 (Edition std-2)","Macintosh","OS X","10_15_7","https://wvbvqp7xwd.cognition.run/","en-US,en;q=0.9","2132","0","","","","","","","<img src=""Compare-Scatter-Text-Blur.png"" style=""max-width:80%; margin:10px;""><br>Penguin A has smaller mass and shorter beak than penguin B.","","","",""
"","","","Opera","109.0.0.0","","","","","","","html-button-response","53","616921","0.0-53.0","2540","1","2024-08-12 17:06:27","b0e02d76891de4098917a4775b26ae70","174.73.14.47","Mozilla/5.0 (Macintosh; Intel Mac OS X 10_15_7) AppleWebKit/537.36 (KHTML, like Gecko) Chrome/123.0.0.0 Safari/537.36 OPR/109.0.0.0 (Edition std-2)","Macintosh","OS X","10_15_7","https://wvbvqp7xwd.cognition.run/","en-US,en;q=0.9","2460","1","","","","","","","<img src=""Compare-Scatter-Text-Blur.png"" style=""max-width:80%; margin:10px;""><br>China is spending more energy than the U.S. in 2019","","","",""
"","","","Opera","109.0.0.0","","","","","","","survey-multi-choice","54","620070","0.0-54.0","2540","1","2024-08-12 17:06:27","b0e02d76891de4098917a4775b26ae70","174.73.14.47","Mozilla/5.0 (Macintosh; Intel Mac OS X 10_15_7) AppleWebKit/537.36 (KHTML, like Gecko) Chrome/123.0.0.0 Safari/537.36 OPR/109.0.0.0 (Edition std-2)","Macintosh","OS X","10_15_7","https://wvbvqp7xwd.cognition.run/","en-US,en;q=0.9","3146","{""Q0"":""Female""}","","","","","","","","[0]","","",""
"","","","Opera","109.0.0.0","","","","","","","free-sort","55","647741","0.0-55.0","2540","1","2024-08-12 17:06:27","b0e02d76891de4098917a4775b26ae70","174.73.14.47","Mozilla/5.0 (Macintosh; Intel Mac OS X 10_15_7) AppleWebKit/537.36 (KHTML, like Gecko) Chrome/123.0.0.0 Safari/537.36 OPR/109.0.0.0 (Edition std-2)","Macintosh","OS X","10_15_7","https://wvbvqp7xwd.cognition.run/","en-US,en;q=0.9","27664","","","","","","","","","","[{""src"":""Sort-Compare-Bar-Color.png"",""x"":984,""y"":4},{""src"":""Sort-Compare-Bar-Mark.png"",""x"":85,""y"":3},{""src"":""Sort-Compare-Bar-Opacity.png"",""x"":978,""y"":44},{""src"":""Sort-Compare-Bar-Text.png"",""x"":610,""y"":12}]","[{""src"":""Sort-Compare-Bar-Opacity.png"",""x"":355,""y"":17},{""src"":""Sort-Compare-Bar-Text.png"",""x"":753,""y"":11},{""src"":""Sort-Compare-Bar-Color.png"",""x"":504,""y"":22},{""src"":""Sort-Compare-Bar-Text.png"",""x"":1056,""y"":17},{""src"":""Sort-Compare-Bar-Color.png"",""x"":860,""y"":17},{""src"":""Sort-Compare-Bar-Opacity.png"",""x"":416,""y"":18},{""src"":""Sort-Compare-Bar-Mark.png"",""x"":138,""y"":13},{""src"":""Sort-Compare-Bar-Text.png"",""x"":65,""y"":37},{""src"":""Sort-Compare-Bar-Opacity.png"",""x"":1190,""y"":20},{""src"":""Sort-Compare-Bar-Mark.png"",""x"":382,""y"":16}]","[{""src"":""Sort-Compare-Bar-Color.png"",""x"":860,""y"":17},{""src"":""Sort-Compare-Bar-Mark.png"",""x"":381,""y"":16},{""src"":""Sort-Compare-Bar-Opacity.png"",""x"":1189,""y"":20},{""src"":""Sort-Compare-Bar-Text.png"",""x"":65,""y"":36}]"
"","","","Opera","109.0.0.0","","","","","","","free-sort","56","662408","0.0-56.0","2540","1","2024-08-12 17:06:27","b0e02d76891de4098917a4775b26ae70","174.73.14.47","Mozilla/5.0 (Macintosh; Intel Mac OS X 10_15_7) AppleWebKit/537.36 (KHTML, like Gecko) Chrome/123.0.0.0 Safari/537.36 OPR/109.0.0.0 (Edition std-2)","Macintosh","OS X","10_15_7","https://wvbvqp7xwd.cognition.run/","en-US,en;q=0.9","14665","","","","","","","","","","[{""src"":""Sort-Compare-Line-Color.png"",""x"":78,""y"":11},{""src"":""Sort-Compare-Line-Mark.png"",""x"":913,""y"":47},{""src"":""Sort-Compare-Line-Opacity.png"",""x"":1171,""y"":15},{""src"":""Sort-Compare-Line-Text.png"",""x"":693,""y"":48}]","[{""src"":""Sort-Compare-Line-Text.png"",""x"":338,""y"":27},{""src"":""Sort-Compare-Line-Opacity.png"",""x"":472,""y"":43},{""src"":""Sort-Compare-Line-Mark.png"",""x"":1125,""y"":31},{""src"":""Sort-Compare-Line-Color.png"",""x"":847,""y"":25},{""src"":""Sort-Compare-Line-Opacity.png"",""x"":99,""y"":29},{""src"":""Sort-Compare-Line-Text.png"",""x"":386,""y"":27},{""src"":""Sort-Compare-Line-Opacity.png"",""x"":129,""y"":27}]","[{""src"":""Sort-Compare-Line-Color.png"",""x"":846,""y"":24},{""src"":""Sort-Compare-Line-Mark.png"",""x"":1125,""y"":30},{""src"":""Sort-Compare-Line-Opacity.png"",""x"":128,""y"":26},{""src"":""Sort-Compare-Line-Text.png"",""x"":385,""y"":27}]"
"","","","Opera","109.0.0.0","","","","","","","free-sort","57","678959","0.0-57.0","2540","1","2024-08-12 17:06:27","b0e02d76891de4098917a4775b26ae70","174.73.14.47","Mozilla/5.0 (Macintosh; Intel Mac OS X 10_15_7) AppleWebKit/537.36 (KHTML, like Gecko) Chrome/123.0.0.0 Safari/537.36 OPR/109.0.0.0 (Edition std-2)","Macintosh","OS X","10_15_7","https://wvbvqp7xwd.cognition.run/","en-US,en;q=0.9","16548","","","","","","","","","","[{""src"":""Sort-Compare-Scatter-Color.png"",""x"":534,""y"":0},{""src"":""Sort-Compare-Scatter-Mark.png"",""x"":507,""y"":41},{""src"":""Sort-Compare-Scatter-Opacity.png"",""x"":285,""y"":20},{""src"":""Sort-Compare-Scatter-Text.png"",""x"":1146,""y"":33}]","[{""src"":""Sort-Compare-Scatter-Mark.png"",""x"":868,""y"":23},{""src"":""Sort-Compare-Scatter-Color.png"",""x"":24,""y"":22},{""src"":""Sort-Compare-Scatter-Opacity.png"",""x"":382,""y"":20},{""src"":""Sort-Compare-Scatter-Color.png"",""x"":108,""y"":23},{""src"":""Sort-Compare-Scatter-Text.png"",""x"":739,""y"":27},{""src"":""Sort-Compare-Scatter-Mark.png"",""x"":1089,""y"":20},{""src"":""Sort-Compare-Scatter-Text.png"",""x"":843,""y"":27}]","[{""src"":""Sort-Compare-Scatter-Color.png"",""x"":108,""y"":23},{""src"":""Sort-Compare-Scatter-Mark.png"",""x"":1089,""y"":19},{""src"":""Sort-Compare-Scatter-Opacity.png"",""x"":381,""y"":20},{""src"":""Sort-Compare-Scatter-Text.png"",""x"":843,""y"":27}]"
"","","","Opera","109.0.0.0","","","","","","","html-button-response","58","684594","0.0-58.0","2540","1","2024-08-12 17:06:27","b0e02d76891de4098917a4775b26ae70","174.73.14.47","Mozilla/5.0 (Macintosh; Intel Mac OS X 10_15_7) AppleWebKit/537.36 (KHTML, like Gecko) Chrome/123.0.0.0 Safari/537.36 OPR/109.0.0.0 (Edition std-2)","Macintosh","OS X","10_15_7","https://wvbvqp7xwd.cognition.run/","en-US,en;q=0.9","5632","0","","","","","","","<p> Thanks for your participation! The prolific code is <b>CVE7UWMV</b></p> Please copy and paste the code before you exit.","","","",""
