"width","height","webaudio","browser","browser_version","mobile","os","fullscreen","vsync_rate","webcam","microphone","trial_type","trial_index","time_elapsed","internal_node_id","run_id","condition","recorded_at","source_code_version","ip","user_agent","device","platform","platform_version","referer","accept_language","rt","response","success","item_width_mm","item_height_mm","item_width_px","px2mm","scale_factor","stimulus","question_order","init_locations","moves","final_locations"
"1669","963","true","Safari","18.0","false","Mac OS","true","90.23","true","true","browser-check","0","676","0.0-0.0","381","1","2024-07-29 18:48:29","b0e02d76891de4098917a4775b26ae70","104.28.94.167","Mozilla/5.0 (Macintosh; Intel Mac OS X 10_15_7) AppleWebKit/605.1.15 (KHTML, like Gecko) Version/18.0 Safari/605.1.15","Macintosh","OS X","10_15_7","https://wvbvqp7xwd.cognition.run/","en-US,en;q=0.9","","","","","","","","","","","","",""
"","","","Safari","18.0","","","","","","","survey-text","1","6478","0.0-1.0","381","1","2024-07-29 18:48:29","b0e02d76891de4098917a4775b26ae70","104.28.94.167","Mozilla/5.0 (Macintosh; Intel Mac OS X 10_15_7) AppleWebKit/605.1.15 (KHTML, like Gecko) Version/18.0 Safari/605.1.15","Macintosh","OS X","10_15_7","https://wvbvqp7xwd.cognition.run/","en-US,en;q=0.9","5788","{""Q0"":""64056843d93dab3b9c4de01e""}","","","","","","","","","","",""
"","","","Safari","18.0","","","","","","","fullscreen","2","18044","0.0-2.0","381","1","2024-07-29 18:48:29","b0e02d76891de4098917a4775b26ae70","104.28.94.167","Mozilla/5.0 (Macintosh; Intel Mac OS X 10_15_7) AppleWebKit/605.1.15 (KHTML, like Gecko) Version/18.0 Safari/605.1.15","Macintosh","OS X","10_15_7","https://wvbvqp7xwd.cognition.run/","en-US,en;q=0.9","10559","","true","","","","","","","","","",""
"","","","Safari","18.0","","","","","","","virtual-chinrest","3","132017","0.0-3.0","381","1","2024-07-29 18:48:29","b0e02d76891de4098917a4775b26ae70","104.28.94.167","Mozilla/5.0 (Macintosh; Intel Mac OS X 10_15_7) AppleWebKit/605.1.15 (KHTML, like Gecko) Version/18.0 Safari/605.1.15","Macintosh","OS X","10_15_7","https://wvbvqp7xwd.cognition.run/","en-US,en;q=0.9","113970","","","85.6","53.98","428.5714285714286","5","0.42","","","","",""
"","","","Safari","18.0","","","","","","","html-button-response","4","171632","0.0-4.0","381","1","2024-07-29 18:48:29","b0e02d76891de4098917a4775b26ae70","104.28.94.167","Mozilla/5.0 (Macintosh; Intel Mac OS X 10_15_7) AppleWebKit/605.1.15 (KHTML, like Gecko) Version/18.0 Safari/605.1.15","Macintosh","OS X","10_15_7","https://wvbvqp7xwd.cognition.run/","en-US,en;q=0.9","39610","0","","","","","","","
    <p>If the measurements were done correctly, the square below should be 10 cm x 10 cm.</p>
    <div style=""background-color: black; width: 500px; height: 500px; margin: 20px auto;""></div>
    ","","","",""
"","","","Safari","18.0","","","","","","","survey-multi-choice","5","174978","0.0-5.0","381","1","2024-07-29 18:48:29","b0e02d76891de4098917a4775b26ae70","104.28.94.167","Mozilla/5.0 (Macintosh; Intel Mac OS X 10_15_7) AppleWebKit/605.1.15 (KHTML, like Gecko) Version/18.0 Safari/605.1.15","Macintosh","OS X","10_15_7","https://wvbvqp7xwd.cognition.run/","en-US,en;q=0.9","3343","{""Q0"":""durian""}","","","","","","","","[0]","","",""
"","","","Safari","18.0","","","","","","","html-button-response","6","176328","0.0-6.0","381","1","2024-07-29 18:48:29","b0e02d76891de4098917a4775b26ae70","104.28.94.167","Mozilla/5.0 (Macintosh; Intel Mac OS X 10_15_7) AppleWebKit/605.1.15 (KHTML, like Gecko) Version/18.0 Safari/605.1.15","Macintosh","OS X","10_15_7","https://wvbvqp7xwd.cognition.run/","en-US,en;q=0.9","1348","0","","","","","","","<p>Great! You passed the attention check. Now let's begin!</p>","","","",""
"","","","Safari","18.0","","","","","","","html-button-response","7","180765","0.0-7.0","381","1","2024-07-29 18:48:29","b0e02d76891de4098917a4775b26ae70","104.28.94.167","Mozilla/5.0 (Macintosh; Intel Mac OS X 10_15_7) AppleWebKit/605.1.15 (KHTML, like Gecko) Version/18.0 Safari/605.1.15","Macintosh","OS X","10_15_7","https://wvbvqp7xwd.cognition.run/","en-US,en;q=0.9","4435","0","","","","","","","<p>In this experiment, you will see 15 dashboards, each for 20 seconds.</p> <p> You need to <b>remember the data fact</b> shown on the dashboard, and try to recall whether it is <b>True or False</b> later.</p>","","","",""
"","","","Safari","18.0","","","","","","","html-button-response","8","188630","0.0-8.0","381","1","2024-07-29 18:48:29","b0e02d76891de4098917a4775b26ae70","104.28.94.167","Mozilla/5.0 (Macintosh; Intel Mac OS X 10_15_7) AppleWebKit/605.1.15 (KHTML, like Gecko) Version/18.0 Safari/605.1.15","Macintosh","OS X","10_15_7","https://wvbvqp7xwd.cognition.run/","en-US,en;q=0.9","7863","0","","","","","","","<p>Your response will be collected and evaluated. If any irregularities are found (such as selecting the same answer for all questions or displaying very low overall accuracy), you may not receive payment.</p>","","","",""
"","","","Safari","18.0","","","","","","","image-keyboard-response","9","208636","0.0-9.0","381","1","2024-07-29 18:48:29","b0e02d76891de4098917a4775b26ae70","104.28.94.167","Mozilla/5.0 (Macintosh; Intel Mac OS X 10_15_7) AppleWebKit/605.1.15 (KHTML, like Gecko) Version/18.0 Safari/605.1.15","Macintosh","OS X","10_15_7","https://wvbvqp7xwd.cognition.run/","en-US,en;q=0.9","null","null","","","","","","","Filter-Bar-Shade.png","","","",""
"","","","Safari","18.0","","","","","","","html-button-response","10","213964","0.0-10.0","381","1","2024-07-29 18:48:29","b0e02d76891de4098917a4775b26ae70","104.28.94.167","Mozilla/5.0 (Macintosh; Intel Mac OS X 10_15_7) AppleWebKit/605.1.15 (KHTML, like Gecko) Version/18.0 Safari/605.1.15","Macintosh","OS X","10_15_7","https://wvbvqp7xwd.cognition.run/","en-US,en;q=0.9","5323","1","","","","","","","<img src=""Filter-Bar-Shade-Blur.png"" style=""max-width:80%; margin:10px;""><br>The number of mobile customers in UK drops below 20 million from 2018 to 2019.","","","",""
"","","","Safari","18.0","","","","","","","html-button-response","11","218638","0.0-11.0","381","1","2024-07-29 18:48:29","b0e02d76891de4098917a4775b26ae70","104.28.94.167","Mozilla/5.0 (Macintosh; Intel Mac OS X 10_15_7) AppleWebKit/605.1.15 (KHTML, like Gecko) Version/18.0 Safari/605.1.15","Macintosh","OS X","10_15_7","https://wvbvqp7xwd.cognition.run/","en-US,en;q=0.9","4671","0","","","","","","","<img src=""Filter-Bar-Shade-Blur.png"" style=""max-width:80%; margin:10px;""><br>The number of hospital in the U.S. has been lower than 3500 thousands since 2003","","","",""
"","","","Safari","18.0","","","","","","","image-keyboard-response","12","238643","0.0-12.0","381","1","2024-07-29 18:48:29","b0e02d76891de4098917a4775b26ae70","104.28.94.167","Mozilla/5.0 (Macintosh; Intel Mac OS X 10_15_7) AppleWebKit/605.1.15 (KHTML, like Gecko) Version/18.0 Safari/605.1.15","Macintosh","OS X","10_15_7","https://wvbvqp7xwd.cognition.run/","en-US,en;q=0.9","null","null","","","","","","","Range-Bar-Opacity.png","","","",""
"","","","Safari","18.0","","","","","","","html-button-response","13","245428","0.0-13.0","381","1","2024-07-29 18:48:29","b0e02d76891de4098917a4775b26ae70","104.28.94.167","Mozilla/5.0 (Macintosh; Intel Mac OS X 10_15_7) AppleWebKit/605.1.15 (KHTML, like Gecko) Version/18.0 Safari/605.1.15","Macintosh","OS X","10_15_7","https://wvbvqp7xwd.cognition.run/","en-US,en;q=0.9","6779","0","","","","","","","<img src=""Range-Bar-Opacity-Blur.png"" style=""max-width:80%; margin:10px;""><br>People from most Asian countries spent 50 to 70 hours on smartphones.","","","",""
"","","","Safari","18.0","","","","","","","html-button-response","14","250894","0.0-14.0","381","1","2024-07-29 18:48:29","b0e02d76891de4098917a4775b26ae70","104.28.94.167","Mozilla/5.0 (Macintosh; Intel Mac OS X 10_15_7) AppleWebKit/605.1.15 (KHTML, like Gecko) Version/18.0 Safari/605.1.15","Macintosh","OS X","10_15_7","https://wvbvqp7xwd.cognition.run/","en-US,en;q=0.9","5463","0","","","","","","","<img src=""Range-Bar-Opacity-Blur.png"" style=""max-width:80%; margin:10px;""><br>Since 2014, the unit sales is between 0.5 and 1.4 milion","","","",""
"","","","Safari","18.0","","","","","","","image-keyboard-response","15","270899","0.0-15.0","381","1","2024-07-29 18:48:29","b0e02d76891de4098917a4775b26ae70","104.28.94.167","Mozilla/5.0 (Macintosh; Intel Mac OS X 10_15_7) AppleWebKit/605.1.15 (KHTML, like Gecko) Version/18.0 Safari/605.1.15","Macintosh","OS X","10_15_7","https://wvbvqp7xwd.cognition.run/","en-US,en;q=0.9","null","null","","","","","","","RetrieveValue-Bar-Line.png","","","",""
"","","","Safari","18.0","","","","","","","html-button-response","16","275357","0.0-16.0","381","1","2024-07-29 18:48:29","b0e02d76891de4098917a4775b26ae70","104.28.94.167","Mozilla/5.0 (Macintosh; Intel Mac OS X 10_15_7) AppleWebKit/605.1.15 (KHTML, like Gecko) Version/18.0 Safari/605.1.15","Macintosh","OS X","10_15_7","https://wvbvqp7xwd.cognition.run/","en-US,en;q=0.9","4454","1","","","","","","","<img src=""RetrieveValue-Bar-Line-Blur.png"" style=""max-width:80%; margin:10px;""><br>In 2016, the national debt of Ireland reach the lowest.","","","",""
"","","","Safari","18.0","","","","","","","html-button-response","17","286857","0.0-17.0","381","1","2024-07-29 18:48:29","b0e02d76891de4098917a4775b26ae70","104.28.94.167","Mozilla/5.0 (Macintosh; Intel Mac OS X 10_15_7) AppleWebKit/605.1.15 (KHTML, like Gecko) Version/18.0 Safari/605.1.15","Macintosh","OS X","10_15_7","https://wvbvqp7xwd.cognition.run/","en-US,en;q=0.9","11496","0","","","","","","","<img src=""RetrieveValue-Bar-Line-Blur.png"" style=""max-width:80%; margin:10px;""><br>In 2007, Waste Management operating value is around 13000 million dollars","","","",""
"","","","Safari","18.0","","","","","","","image-keyboard-response","18","306862","0.0-18.0","381","1","2024-07-29 18:48:29","b0e02d76891de4098917a4775b26ae70","104.28.94.167","Mozilla/5.0 (Macintosh; Intel Mac OS X 10_15_7) AppleWebKit/605.1.15 (KHTML, like Gecko) Version/18.0 Safari/605.1.15","Macintosh","OS X","10_15_7","https://wvbvqp7xwd.cognition.run/","en-US,en;q=0.9","null","null","","","","","","","Trend-Bar-Text.png","","","",""
"","","","Safari","18.0","","","","","","","html-button-response","19","317758","0.0-19.0","381","1","2024-07-29 18:48:29","b0e02d76891de4098917a4775b26ae70","104.28.94.167","Mozilla/5.0 (Macintosh; Intel Mac OS X 10_15_7) AppleWebKit/605.1.15 (KHTML, like Gecko) Version/18.0 Safari/605.1.15","Macintosh","OS X","10_15_7","https://wvbvqp7xwd.cognition.run/","en-US,en;q=0.9","10887","1","","","","","","","<img src=""Trend-Bar-Text-Blur.png"" style=""max-width:80%; margin:10px;""><br>The employee number of Brunswick investment banking decreased from 2014 to 2017.","","","",""
"","","","Safari","18.0","","","","","","","html-button-response","20","321291","0.0-20.0","381","1","2024-07-29 18:48:29","b0e02d76891de4098917a4775b26ae70","104.28.94.167","Mozilla/5.0 (Macintosh; Intel Mac OS X 10_15_7) AppleWebKit/605.1.15 (KHTML, like Gecko) Version/18.0 Safari/605.1.15","Macintosh","OS X","10_15_7","https://wvbvqp7xwd.cognition.run/","en-US,en;q=0.9","3529","0","","","","","","","<img src=""Trend-Bar-Text-Blur.png"" style=""max-width:80%; margin:10px;""><br>The alchol consumption in UK has been droping since 2010","","","",""
"","","","Safari","18.0","","","","","","","image-keyboard-response","21","341296","0.0-21.0","381","1","2024-07-29 18:48:29","b0e02d76891de4098917a4775b26ae70","104.28.94.167","Mozilla/5.0 (Macintosh; Intel Mac OS X 10_15_7) AppleWebKit/605.1.15 (KHTML, like Gecko) Version/18.0 Safari/605.1.15","Macintosh","OS X","10_15_7","https://wvbvqp7xwd.cognition.run/","en-US,en;q=0.9","null","null","","","","","","","Compare-Bar-Color.png","","","",""
"","","","Safari","18.0","","","","","","","html-button-response","22","345259","0.0-22.0","381","1","2024-07-29 18:48:29","b0e02d76891de4098917a4775b26ae70","104.28.94.167","Mozilla/5.0 (Macintosh; Intel Mac OS X 10_15_7) AppleWebKit/605.1.15 (KHTML, like Gecko) Version/18.0 Safari/605.1.15","Macintosh","OS X","10_15_7","https://wvbvqp7xwd.cognition.run/","en-US,en;q=0.9","3957","0","","","","","","","<img src=""Compare-Bar-Color-Blur.png"" style=""max-width:80%; margin:10px;""><br>China is spending more energy than the U.S. in 2019","","","",""
"","","","Safari","18.0","","","","","","","html-button-response","23","353159","0.0-23.0","381","1","2024-07-29 18:48:29","b0e02d76891de4098917a4775b26ae70","104.28.94.167","Mozilla/5.0 (Macintosh; Intel Mac OS X 10_15_7) AppleWebKit/605.1.15 (KHTML, like Gecko) Version/18.0 Safari/605.1.15","Macintosh","OS X","10_15_7","https://wvbvqp7xwd.cognition.run/","en-US,en;q=0.9","7896","1","","","","","","","<img src=""Compare-Bar-Color-Blur.png"" style=""max-width:80%; margin:10px;""><br>The operating profit of Roche group is higher in 2008 than in 2018.","","","",""
"","","","Safari","18.0","","","","","","","image-keyboard-response","24","373165","0.0-24.0","381","1","2024-07-29 18:48:29","b0e02d76891de4098917a4775b26ae70","104.28.94.167","Mozilla/5.0 (Macintosh; Intel Mac OS X 10_15_7) AppleWebKit/605.1.15 (KHTML, like Gecko) Version/18.0 Safari/605.1.15","Macintosh","OS X","10_15_7","https://wvbvqp7xwd.cognition.run/","en-US,en;q=0.9","null","null","","","","","","","Filter-Line-Opacity.png","","","",""
"","","","Safari","18.0","","","","","","","html-button-response","25","379958","0.0-25.0","381","1","2024-07-29 18:48:29","b0e02d76891de4098917a4775b26ae70","104.28.94.167","Mozilla/5.0 (Macintosh; Intel Mac OS X 10_15_7) AppleWebKit/605.1.15 (KHTML, like Gecko) Version/18.0 Safari/605.1.15","Macintosh","OS X","10_15_7","https://wvbvqp7xwd.cognition.run/","en-US,en;q=0.9","6787","0","","","","","","","<img src=""Filter-Line-Opacity-Blur.png"" style=""max-width:80%; margin:10px;""><br>The number of hospitals in the U.S. has been higher than 3500 thousands since 2014.","","","",""
"","","","Safari","18.0","","","","","","","html-button-response","26","388620","0.0-26.0","381","1","2024-07-29 18:48:29","b0e02d76891de4098917a4775b26ae70","104.28.94.167","Mozilla/5.0 (Macintosh; Intel Mac OS X 10_15_7) AppleWebKit/605.1.15 (KHTML, like Gecko) Version/18.0 Safari/605.1.15","Macintosh","OS X","10_15_7","https://wvbvqp7xwd.cognition.run/","en-US,en;q=0.9","8657","0","","","","","","","<img src=""Filter-Line-Opacity-Blur.png"" style=""max-width:80%; margin:10px;""><br>Some penguins are heavier than 5000 g","","","",""
"","","","Safari","18.0","","","","","","","image-keyboard-response","27","408625","0.0-27.0","381","1","2024-07-29 18:48:29","b0e02d76891de4098917a4775b26ae70","104.28.94.167","Mozilla/5.0 (Macintosh; Intel Mac OS X 10_15_7) AppleWebKit/605.1.15 (KHTML, like Gecko) Version/18.0 Safari/605.1.15","Macintosh","OS X","10_15_7","https://wvbvqp7xwd.cognition.run/","en-US,en;q=0.9","null","null","","","","","","","Range-Line-Shade.png","","","",""
"","","","Safari","18.0","","","","","","","html-button-response","28","412158","0.0-28.0","381","1","2024-07-29 18:48:29","b0e02d76891de4098917a4775b26ae70","104.28.94.167","Mozilla/5.0 (Macintosh; Intel Mac OS X 10_15_7) AppleWebKit/605.1.15 (KHTML, like Gecko) Version/18.0 Safari/605.1.15","Macintosh","OS X","10_15_7","https://wvbvqp7xwd.cognition.run/","en-US,en;q=0.9","3525","1","","","","","","","<img src=""Range-Line-Shade-Blur.png"" style=""max-width:80%; margin:10px;""><br>Since 2014, the unit sales are between 2 and 3 million.","","","",""
"","","","Safari","18.0","","","","","","","html-button-response","29","443186","0.0-29.0","381","1","2024-07-29 18:48:29","b0e02d76891de4098917a4775b26ae70","104.28.94.167","Mozilla/5.0 (Macintosh; Intel Mac OS X 10_15_7) AppleWebKit/605.1.15 (KHTML, like Gecko) Version/18.0 Safari/605.1.15","Macintosh","OS X","10_15_7","https://wvbvqp7xwd.cognition.run/","en-US,en;q=0.9","31023","0","","","","","","","<img src=""Range-Line-Shade-Blur.png"" style=""max-width:80%; margin:10px;""><br>Most countries have less than 50000 income","","","",""
"","","","Safari","18.0","","","","","","","image-keyboard-response","30","463192","0.0-30.0","381","1","2024-07-29 18:48:29","b0e02d76891de4098917a4775b26ae70","104.28.94.167","Mozilla/5.0 (Macintosh; Intel Mac OS X 10_15_7) AppleWebKit/605.1.15 (KHTML, like Gecko) Version/18.0 Safari/605.1.15","Macintosh","OS X","10_15_7","https://wvbvqp7xwd.cognition.run/","en-US,en;q=0.9","null","null","","","","","","","RetrieveValue-Line-Opacity.png","","","",""
"","","","Safari","18.0","","","","","","","html-button-response","31","472123","0.0-31.0","381","1","2024-07-29 18:48:29","b0e02d76891de4098917a4775b26ae70","104.28.94.167","Mozilla/5.0 (Macintosh; Intel Mac OS X 10_15_7) AppleWebKit/605.1.15 (KHTML, like Gecko) Version/18.0 Safari/605.1.15","Macintosh","OS X","10_15_7","https://wvbvqp7xwd.cognition.run/","en-US,en;q=0.9","8924","1","","","","","","","<img src=""RetrieveValue-Line-Opacity-Blur.png"" style=""max-width:80%; margin:10px;""><br>In 2007, Waste Management operating value is around 5000 million dollars.","","","",""
"","","","Safari","18.0","","","","","","","html-button-response","32","481887","0.0-32.0","381","1","2024-07-29 18:48:29","b0e02d76891de4098917a4775b26ae70","104.28.94.167","Mozilla/5.0 (Macintosh; Intel Mac OS X 10_15_7) AppleWebKit/605.1.15 (KHTML, like Gecko) Version/18.0 Safari/605.1.15","Macintosh","OS X","10_15_7","https://wvbvqp7xwd.cognition.run/","en-US,en;q=0.9","9759","0","","","","","","","<img src=""RetrieveValue-Line-Opacity-Blur.png"" style=""max-width:80%; margin:10px;""><br>Car A has about 160 horsepower and runs 15 miles per gallon","","","",""
"","","","Safari","18.0","","","","","","","image-keyboard-response","33","501900","0.0-33.0","381","1","2024-07-29 18:48:29","b0e02d76891de4098917a4775b26ae70","104.28.94.167","Mozilla/5.0 (Macintosh; Intel Mac OS X 10_15_7) AppleWebKit/605.1.15 (KHTML, like Gecko) Version/18.0 Safari/605.1.15","Macintosh","OS X","10_15_7","https://wvbvqp7xwd.cognition.run/","en-US,en;q=0.9","null","null","","","","","","","Trend-Line-Opacity.png","","","",""
"","","","Safari","18.0","","","","","","","html-button-response","34","504453","0.0-34.0","381","1","2024-07-29 18:48:29","b0e02d76891de4098917a4775b26ae70","104.28.94.167","Mozilla/5.0 (Macintosh; Intel Mac OS X 10_15_7) AppleWebKit/605.1.15 (KHTML, like Gecko) Version/18.0 Safari/605.1.15","Macintosh","OS X","10_15_7","https://wvbvqp7xwd.cognition.run/","en-US,en;q=0.9","2545","1","","","","","","","<img src=""Trend-Line-Opacity-Blur.png"" style=""max-width:80%; margin:10px;""><br>The alcohol consumption in UK has been increasing since 2010.","","","",""
"","","","Safari","18.0","","","","","","","html-button-response","35","514424","0.0-35.0","381","1","2024-07-29 18:48:29","b0e02d76891de4098917a4775b26ae70","104.28.94.167","Mozilla/5.0 (Macintosh; Intel Mac OS X 10_15_7) AppleWebKit/605.1.15 (KHTML, like Gecko) Version/18.0 Safari/605.1.15","Macintosh","OS X","10_15_7","https://wvbvqp7xwd.cognition.run/","en-US,en;q=0.9","9967","0","","","","","","","<img src=""Trend-Line-Opacity-Blur.png"" style=""max-width:80%; margin:10px;""><br>The rotten tomatoes rating is related to IMDB rating","","","",""
"","","","Safari","18.0","","","","","","","image-keyboard-response","36","534430","0.0-36.0","381","1","2024-07-29 18:48:29","b0e02d76891de4098917a4775b26ae70","104.28.94.167","Mozilla/5.0 (Macintosh; Intel Mac OS X 10_15_7) AppleWebKit/605.1.15 (KHTML, like Gecko) Version/18.0 Safari/605.1.15","Macintosh","OS X","10_15_7","https://wvbvqp7xwd.cognition.run/","en-US,en;q=0.9","null","null","","","","","","","Compare-Line-Text.png","","","",""
"","","","Safari","18.0","","","","","","","html-button-response","37","540180","0.0-37.0","381","1","2024-07-29 18:48:29","b0e02d76891de4098917a4775b26ae70","104.28.94.167","Mozilla/5.0 (Macintosh; Intel Mac OS X 10_15_7) AppleWebKit/605.1.15 (KHTML, like Gecko) Version/18.0 Safari/605.1.15","Macintosh","OS X","10_15_7","https://wvbvqp7xwd.cognition.run/","en-US,en;q=0.9","5743","0","","","","","","","<img src=""Compare-Line-Text-Blur.png"" style=""max-width:80%; margin:10px;""><br>The operating profit of Roche group is lower in 2008 than in 2018","","","",""
"","","","Safari","18.0","","","","","","","html-button-response","38","551118","0.0-38.0","381","1","2024-07-29 18:48:29","b0e02d76891de4098917a4775b26ae70","104.28.94.167","Mozilla/5.0 (Macintosh; Intel Mac OS X 10_15_7) AppleWebKit/605.1.15 (KHTML, like Gecko) Version/18.0 Safari/605.1.15","Macintosh","OS X","10_15_7","https://wvbvqp7xwd.cognition.run/","en-US,en;q=0.9","10935","1","","","","","","","<img src=""Compare-Line-Text-Blur.png"" style=""max-width:80%; margin:10px;""><br>Penguin A has larger mass and longer beak than penguin B","","","",""
"","","","Safari","18.0","","","","","","","image-keyboard-response","39","571131","0.0-39.0","381","1","2024-07-29 18:48:29","b0e02d76891de4098917a4775b26ae70","104.28.94.167","Mozilla/5.0 (Macintosh; Intel Mac OS X 10_15_7) AppleWebKit/605.1.15 (KHTML, like Gecko) Version/18.0 Safari/605.1.15","Macintosh","OS X","10_15_7","https://wvbvqp7xwd.cognition.run/","en-US,en;q=0.9","null","null","","","","","","","Filter-Scatter-Bound.png","","","",""
"","","","Safari","18.0","","","","","","","html-button-response","40","578019","0.0-40.0","381","1","2024-07-29 18:48:29","b0e02d76891de4098917a4775b26ae70","104.28.94.167","Mozilla/5.0 (Macintosh; Intel Mac OS X 10_15_7) AppleWebKit/605.1.15 (KHTML, like Gecko) Version/18.0 Safari/605.1.15","Macintosh","OS X","10_15_7","https://wvbvqp7xwd.cognition.run/","en-US,en;q=0.9","6882","0","","","","","","","<img src=""Filter-Scatter-Bound-Blur.png"" style=""max-width:80%; margin:10px;""><br>Some penguins are heavier than 5000 g","","","",""
"","","","Safari","18.0","","","","","","","html-button-response","41","587752","0.0-41.0","381","1","2024-07-29 18:48:29","b0e02d76891de4098917a4775b26ae70","104.28.94.167","Mozilla/5.0 (Macintosh; Intel Mac OS X 10_15_7) AppleWebKit/605.1.15 (KHTML, like Gecko) Version/18.0 Safari/605.1.15","Macintosh","OS X","10_15_7","https://wvbvqp7xwd.cognition.run/","en-US,en;q=0.9","9729","0","","","","","","","<img src=""Filter-Scatter-Bound-Blur.png"" style=""max-width:80%; margin:10px;""><br>The number of mobile customers in UK drops below 30 million from 2018 to 2019.","","","",""
"","","","Safari","18.0","","","","","","","image-keyboard-response","42","607758","0.0-42.0","381","1","2024-07-29 18:48:29","b0e02d76891de4098917a4775b26ae70","104.28.94.167","Mozilla/5.0 (Macintosh; Intel Mac OS X 10_15_7) AppleWebKit/605.1.15 (KHTML, like Gecko) Version/18.0 Safari/605.1.15","Macintosh","OS X","10_15_7","https://wvbvqp7xwd.cognition.run/","en-US,en;q=0.9","null","null","","","","","","","Range-Scatter-Opacity.png","","","",""
"","","","Safari","18.0","","","","","","","html-button-response","43","609985","0.0-43.0","381","1","2024-07-29 18:48:29","b0e02d76891de4098917a4775b26ae70","104.28.94.167","Mozilla/5.0 (Macintosh; Intel Mac OS X 10_15_7) AppleWebKit/605.1.15 (KHTML, like Gecko) Version/18.0 Safari/605.1.15","Macintosh","OS X","10_15_7","https://wvbvqp7xwd.cognition.run/","en-US,en;q=0.9","2219","0","","","","","","","<img src=""Range-Scatter-Opacity-Blur.png"" style=""max-width:80%; margin:10px;""><br>Most countries have less than 50000 income","","","",""
"","","","Safari","18.0","","","","","","","html-button-response","44","625015","0.0-44.0","381","1","2024-07-29 18:48:29","b0e02d76891de4098917a4775b26ae70","104.28.94.167","Mozilla/5.0 (Macintosh; Intel Mac OS X 10_15_7) AppleWebKit/605.1.15 (KHTML, like Gecko) Version/18.0 Safari/605.1.15","Macintosh","OS X","10_15_7","https://wvbvqp7xwd.cognition.run/","en-US,en;q=0.9","15025","0","","","","","","","<img src=""Range-Scatter-Opacity-Blur.png"" style=""max-width:80%; margin:10px;""><br>People from most Asian countries spent 50 to 70 hours on smartphones.","","","",""
"","","","Safari","18.0","","","","","","","image-keyboard-response","45","645021","0.0-45.0","381","1","2024-07-29 18:48:29","b0e02d76891de4098917a4775b26ae70","104.28.94.167","Mozilla/5.0 (Macintosh; Intel Mac OS X 10_15_7) AppleWebKit/605.1.15 (KHTML, like Gecko) Version/18.0 Safari/605.1.15","Macintosh","OS X","10_15_7","https://wvbvqp7xwd.cognition.run/","en-US,en;q=0.9","null","null","","","","","","","RetrieveValue-Scatter-Line.png","","","",""
"","","","Safari","18.0","","","","","","","html-button-response","46","650914","0.0-46.0","381","1","2024-07-29 18:48:29","b0e02d76891de4098917a4775b26ae70","104.28.94.167","Mozilla/5.0 (Macintosh; Intel Mac OS X 10_15_7) AppleWebKit/605.1.15 (KHTML, like Gecko) Version/18.0 Safari/605.1.15","Macintosh","OS X","10_15_7","https://wvbvqp7xwd.cognition.run/","en-US,en;q=0.9","5885","1","","","","","","","<img src=""RetrieveValue-Scatter-Line-Blur.png"" style=""max-width:80%; margin:10px;""><br>Car A has about 300 horsepower and runs 30 miles per gallon.","","","",""
"","","","Safari","18.0","","","","","","","html-button-response","47","656414","0.0-47.0","381","1","2024-07-29 18:48:29","b0e02d76891de4098917a4775b26ae70","104.28.94.167","Mozilla/5.0 (Macintosh; Intel Mac OS X 10_15_7) AppleWebKit/605.1.15 (KHTML, like Gecko) Version/18.0 Safari/605.1.15","Macintosh","OS X","10_15_7","https://wvbvqp7xwd.cognition.run/","en-US,en;q=0.9","5497","0","","","","","","","<img src=""RetrieveValue-Scatter-Line-Blur.png"" style=""max-width:80%; margin:10px;""><br>In 2016, the national debt of Ireland reached the highest.","","","",""
"","","","Safari","18.0","","","","","","","image-keyboard-response","48","676420","0.0-48.0","381","1","2024-07-29 18:48:29","b0e02d76891de4098917a4775b26ae70","104.28.94.167","Mozilla/5.0 (Macintosh; Intel Mac OS X 10_15_7) AppleWebKit/605.1.15 (KHTML, like Gecko) Version/18.0 Safari/605.1.15","Macintosh","OS X","10_15_7","https://wvbvqp7xwd.cognition.run/","en-US,en;q=0.9","null","null","","","","","","","Trend-Scatter-Text.png","","","",""
"","","","Safari","18.0","","","","","","","html-button-response","49","678815","0.0-49.0","381","1","2024-07-29 18:48:29","b0e02d76891de4098917a4775b26ae70","104.28.94.167","Mozilla/5.0 (Macintosh; Intel Mac OS X 10_15_7) AppleWebKit/605.1.15 (KHTML, like Gecko) Version/18.0 Safari/605.1.15","Macintosh","OS X","10_15_7","https://wvbvqp7xwd.cognition.run/","en-US,en;q=0.9","2388","1","","","","","","","<img src=""Trend-Scatter-Text-Blur.png"" style=""max-width:80%; margin:10px;""><br>The rotten tomatoes rating is not related to IMDB rating.","","","",""
"","","","Safari","18.0","","","","","","","html-button-response","50","684251","0.0-50.0","381","1","2024-07-29 18:48:29","b0e02d76891de4098917a4775b26ae70","104.28.94.167","Mozilla/5.0 (Macintosh; Intel Mac OS X 10_15_7) AppleWebKit/605.1.15 (KHTML, like Gecko) Version/18.0 Safari/605.1.15","Macintosh","OS X","10_15_7","https://wvbvqp7xwd.cognition.run/","en-US,en;q=0.9","5432","0","","","","","","","<img src=""Trend-Scatter-Text-Blur.png"" style=""max-width:80%; margin:10px;""><br>The employee number of Brunswick investment banking decreased from 2014 to 2017.","","","",""
"","","","Safari","18.0","","","","","","","image-keyboard-response","51","704258","0.0-51.0","381","1","2024-07-29 18:48:29","b0e02d76891de4098917a4775b26ae70","104.28.94.167","Mozilla/5.0 (Macintosh; Intel Mac OS X 10_15_7) AppleWebKit/605.1.15 (KHTML, like Gecko) Version/18.0 Safari/605.1.15","Macintosh","OS X","10_15_7","https://wvbvqp7xwd.cognition.run/","en-US,en;q=0.9","null","null","","","","","","","Compare-Scatter-Text.png","","","",""
"","","","Safari","18.0","","","","","","","html-button-response","52","716082","0.0-52.0","381","1","2024-07-29 18:48:29","b0e02d76891de4098917a4775b26ae70","104.28.94.167","Mozilla/5.0 (Macintosh; Intel Mac OS X 10_15_7) AppleWebKit/605.1.15 (KHTML, like Gecko) Version/18.0 Safari/605.1.15","Macintosh","OS X","10_15_7","https://wvbvqp7xwd.cognition.run/","en-US,en;q=0.9","11816","0","","","","","","","<img src=""Compare-Scatter-Text-Blur.png"" style=""max-width:80%; margin:10px;""><br>Penguin A has smaller mass and shorter beak than penguin B.","","","",""
"","","","Safari","18.0","","","","","","","html-button-response","53","719882","0.0-53.0","381","1","2024-07-29 18:48:29","b0e02d76891de4098917a4775b26ae70","104.28.94.167","Mozilla/5.0 (Macintosh; Intel Mac OS X 10_15_7) AppleWebKit/605.1.15 (KHTML, like Gecko) Version/18.0 Safari/605.1.15","Macintosh","OS X","10_15_7","https://wvbvqp7xwd.cognition.run/","en-US,en;q=0.9","3794","1","","","","","","","<img src=""Compare-Scatter-Text-Blur.png"" style=""max-width:80%; margin:10px;""><br>China is spending less energy than the U.S. in 2019.","","","",""
"","","","Safari","18.0","","","","","","","survey-multi-choice","54","724589","0.0-54.0","381","1","2024-07-29 18:48:29","b0e02d76891de4098917a4775b26ae70","104.28.94.167","Mozilla/5.0 (Macintosh; Intel Mac OS X 10_15_7) AppleWebKit/605.1.15 (KHTML, like Gecko) Version/18.0 Safari/605.1.15","Macintosh","OS X","10_15_7","https://wvbvqp7xwd.cognition.run/","en-US,en;q=0.9","4705","{""Q0"":""Male""}","","","","","","","","[0]","","",""
"","","","Safari","18.0","","","","","","","free-sort","55","989878","0.0-55.0","381","1","2024-07-29 18:48:29","b0e02d76891de4098917a4775b26ae70","104.28.94.167","Mozilla/5.0 (Macintosh; Intel Mac OS X 10_15_7) AppleWebKit/605.1.15 (KHTML, like Gecko) Version/18.0 Safari/605.1.15","Macintosh","OS X","10_15_7","https://wvbvqp7xwd.cognition.run/","en-US,en;q=0.9","265283","","","","","","","","","","[{""src"":""Sort-RetrieveValue-Bar-Color.png"",""x"":594,""y"":7},{""src"":""Sort-RetrieveValue-Bar-Line.png"",""x"":463,""y"":2},{""src"":""Sort-RetrieveValue-Bar-Mark.png"",""x"":417,""y"":47},{""src"":""Sort-RetrieveValue-Bar-Opacity.png"",""x"":599,""y"":21},{""src"":""Sort-RetrieveValue-Bar-Text.png"",""x"":608,""y"":17}]","[{""src"":""Sort-RetrieveValue-Bar-Line.png"",""x"":407,""y"":64},{""src"":""Sort-RetrieveValue-Bar-Line.png"",""x"":407,""y"":64},{""src"":""Sort-RetrieveValue-Bar-Mark.png"",""x"":424,""y"":29},{""src"":""Sort-RetrieveValue-Bar-Mark.png"",""x"":424,""y"":29},{""src"":""Sort-RetrieveValue-Bar-Mark.png"",""x"":424,""y"":29},{""src"":""Sort-RetrieveValue-Bar-Mark.png"",""x"":424,""y"":29},{""src"":""Sort-RetrieveValue-Bar-Mark.png"",""x"":133,""y"":41},{""src"":""Sort-RetrieveValue-Bar-Line.png"",""x"":407,""y"":64},{""src"":""Sort-RetrieveValue-Bar-Line.png"",""x"":786,""y"":60},{""src"":""Sort-RetrieveValue-Bar-Line.png"",""x"":786,""y"":60},{""src"":""Sort-RetrieveValue-Bar-Line.png"",""x"":786,""y"":60},{""src"":""Sort-RetrieveValue-Bar-Line.png"",""x"":786,""y"":60},{""src"":""Sort-RetrieveValue-Bar-Line.png"",""x"":786,""y"":60},{""src"":""Sort-RetrieveValue-Bar-Mark.png"",""x"":578,""y"":-8},{""src"":""Sort-RetrieveValue-Bar-Line.png"",""x"":786,""y"":60},{""src"":""Sort-RetrieveValue-Bar-Mark.png"",""x"":578,""y"":-8},{""src"":""Sort-RetrieveValue-Bar-Line.png"",""x"":786,""y"":60},{""src"":""Sort-RetrieveValue-Bar-Mark.png"",""x"":578,""y"":-8},{""src"":""Sort-RetrieveValue-Bar-Text.png"",""x"":644,""y"":105},{""src"":""Sort-RetrieveValue-Bar-Mark.png"",""x"":578,""y"":-8},{""src"":""Sort-RetrieveValue-Bar-Text.png"",""x"":644,""y"":105},{""src"":""Sort-RetrieveValue-Bar-Opacity.png"",""x"":599,""y"":21},{""src"":""Sort-RetrieveValue-Bar-Mark.png"",""x"":331,""y"":35},{""src"":""Sort-RetrieveValue-Bar-Mark.png"",""x"":331,""y"":35},{""src"":""Sort-RetrieveValue-Bar-Mark.png"",""x"":331,""y"":35},{""src"":""Sort-RetrieveValue-Bar-Mark.png"",""x"":331,""y"":35},{""src"":""Sort-RetrieveValue-Bar-Text.png"",""x"":734,""y"":81},{""src"":""Sort-RetrieveValue-Bar-Text.png"",""x"":734,""y"":81},{""src"":""Sort-RetrieveValue-Bar-Text.png"",""x"":734,""y"":81},{""src"":""Sort-RetrieveValue-Bar-Text.png"",""x"":734,""y"":81},{""src"":""Sort-RetrieveValue-Bar-Text.png"",""x"":734,""y"":81},{""src"":""Sort-RetrieveValue-Bar-Mark.png"",""x"":383,""y"":25},{""src"":""Sort-RetrieveValue-Bar-Text.png"",""x"":1203,""y"":63},{""src"":""Sort-RetrieveValue-Bar-Text.png"",""x"":1203,""y"":63},{""src"":""Sort-RetrieveValue-Bar-Text.png"",""x"":1203,""y"":63},{""src"":""Sort-RetrieveValue-Bar-Text.png"",""x"":1203,""y"":63},{""src"":""Sort-RetrieveValue-Bar-Opacity.png"",""x"":1113,""y"":44},{""src"":""Sort-RetrieveValue-Bar-Opacity.png"",""x"":1113,""y"":44},{""src"":""Sort-RetrieveValue-Bar-Opacity.png"",""x"":1113,""y"":44},{""src"":""Sort-RetrieveValue-Bar-Text.png"",""x"":1203,""y"":63},{""src"":""Sort-RetrieveValue-Bar-Text.png"",""x"":1203,""y"":63},{""src"":""Sort-RetrieveValue-Bar-Text.png"",""x"":1203,""y"":63},{""src"":""Sort-RetrieveValue-Bar-Text.png"",""x"":1203,""y"":63},{""src"":""Sort-RetrieveValue-Bar-Color.png"",""x"":938,""y"":31},{""src"":""Sort-RetrieveValue-Bar-Color.png"",""x"":938,""y"":31},{""src"":""Sort-RetrieveValue-Bar-Color.png"",""x"":938,""y"":31},{""src"":""Sort-RetrieveValue-Bar-Color.png"",""x"":938,""y"":31},{""src"":""Sort-RetrieveValue-Bar-Color.png"",""x"":938,""y"":31},{""src"":""Sort-RetrieveValue-Bar-Mark.png"",""x"":597,""y"":24},{""src"":""Sort-RetrieveValue-Bar-Line.png"",""x"":857,""y"":50},{""src"":""Sort-RetrieveValue-Bar-Line.png"",""x"":479,""y"":59},{""src"":""Sort-RetrieveValue-Bar-Mark.png"",""x"":504,""y"":35},{""src"":""Sort-RetrieveValue-Bar-Line.png"",""x"":511,""y"":99},{""src"":""Sort-RetrieveValue-Bar-Line.png"",""x"":511,""y"":99},{""src"":""Sort-RetrieveValue-Bar-Line.png"",""x"":511,""y"":99},{""src"":""Sort-RetrieveValue-Bar-Line.png"",""x"":511,""y"":99},{""src"":""Sort-RetrieveValue-Bar-Line.png"",""x"":511,""y"":99},{""src"":""Sort-RetrieveValue-Bar-Line.png"",""x"":511,""y"":99},{""src"":""Sort-RetrieveValue-Bar-Line.png"",""x"":270,""y"":69},{""src"":""Sort-RetrieveValue-Bar-Line.png"",""x"":270,""y"":69},{""src"":""Sort-RetrieveValue-Bar-Line.png"",""x"":270,""y"":69},{""src"":""Sort-RetrieveValue-Bar-Line.png"",""x"":270,""y"":69},{""src"":""Sort-RetrieveValue-Bar-Line.png"",""x"":270,""y"":69},{""src"":""Sort-RetrieveValue-Bar-Line.png"",""x"":270,""y"":69},{""src"":""Sort-RetrieveValue-Bar-Line.png"",""x"":270,""y"":69},{""src"":""Sort-RetrieveValue-Bar-Line.png"",""x"":270,""y"":69},{""src"":""Sort-RetrieveValue-Bar-Line.png"",""x"":270,""y"":69},{""src"":""Sort-RetrieveValue-Bar-Line.png"",""x"":270,""y"":69},{""src"":""Sort-RetrieveValue-Bar-Text.png"",""x"":698,""y"":49},{""src"":""Sort-RetrieveValue-Bar-Text.png"",""x"":698,""y"":49},{""src"":""Sort-RetrieveValue-Bar-Text.png"",""x"":698,""y"":49},{""src"":""Sort-RetrieveValue-Bar-Mark.png"",""x"":961,""y"":21},{""src"":""Sort-RetrieveValue-Bar-Mark.png"",""x"":961,""y"":21},{""src"":""Sort-RetrieveValue-Bar-Mark.png"",""x"":961,""y"":21},{""src"":""Sort-RetrieveValue-Bar-Mark.png"",""x"":961,""y"":21},{""src"":""Sort-RetrieveValue-Bar-Mark.png"",""x"":1021,""y"":38},{""src"":""Sort-RetrieveValue-Bar-Mark.png"",""x"":1021,""y"":38},{""src"":""Sort-RetrieveValue-Bar-Mark.png"",""x"":1021,""y"":38},{""src"":""Sort-RetrieveValue-Bar-Mark.png"",""x"":1021,""y"":38},{""src"":""Sort-RetrieveValue-Bar-Mark.png"",""x"":1021,""y"":38},{""src"":""Sort-RetrieveValue-Bar-Mark.png"",""x"":1021,""y"":38},{""src"":""Sort-RetrieveValue-Bar-Mark.png"",""x"":1021,""y"":38},{""src"":""Sort-RetrieveValue-Bar-Mark.png"",""x"":1021,""y"":38},{""src"":""Sort-RetrieveValue-Bar-Mark.png"",""x"":1021,""y"":38},{""src"":""Sort-RetrieveValue-Bar-Color.png"",""x"":973,""y"":35}]","[{""src"":""Sort-RetrieveValue-Bar-Color.png"",""x"":973,""y"":35},{""src"":""Sort-RetrieveValue-Bar-Line.png"",""x"":270,""y"":69},{""src"":""Sort-RetrieveValue-Bar-Mark.png"",""x"":1021,""y"":38},{""src"":""Sort-RetrieveValue-Bar-Opacity.png"",""x"":1113,""y"":44},{""src"":""Sort-RetrieveValue-Bar-Text.png"",""x"":698,""y"":49}]"
"","","","Safari","18.0","","","","","","","free-sort","56","1063850","0.0-56.0","381","1","2024-07-29 18:48:29","b0e02d76891de4098917a4775b26ae70","104.28.94.167","Mozilla/5.0 (Macintosh; Intel Mac OS X 10_15_7) AppleWebKit/605.1.15 (KHTML, like Gecko) Version/18.0 Safari/605.1.15","Macintosh","OS X","10_15_7","https://wvbvqp7xwd.cognition.run/","en-US,en;q=0.9","73976","","","","","","","","","","[{""src"":""Sort-RetrieveValue-Line-Color.png"",""x"":428,""y"":18},{""src"":""Sort-RetrieveValue-Line-Line.png"",""x"":234,""y"":19},{""src"":""Sort-RetrieveValue-Line-Mark.png"",""x"":159,""y"":26},{""src"":""Sort-RetrieveValue-Line-Opacity.png"",""x"":798,""y"":18},{""src"":""Sort-RetrieveValue-Line-Text.png"",""x"":529,""y"":9}]","[{""src"":""Sort-RetrieveValue-Line-Color.png"",""x"":900,""y"":13},{""src"":""Sort-RetrieveValue-Line-Color.png"",""x"":900,""y"":13},{""src"":""Sort-RetrieveValue-Line-Color.png"",""x"":900,""y"":13},{""src"":""Sort-RetrieveValue-Line-Mark.png"",""x"":831,""y"":31},{""src"":""Sort-RetrieveValue-Line-Mark.png"",""x"":831,""y"":31},{""src"":""Sort-RetrieveValue-Line-Text.png"",""x"":1095,""y"":45},{""src"":""Sort-RetrieveValue-Line-Text.png"",""x"":1095,""y"":45},{""src"":""Sort-RetrieveValue-Line-Text.png"",""x"":1095,""y"":45},{""src"":""Sort-RetrieveValue-Line-Text.png"",""x"":1095,""y"":45},{""src"":""Sort-RetrieveValue-Line-Line.png"",""x"":916,""y"":15},{""src"":""Sort-RetrieveValue-Line-Line.png"",""x"":916,""y"":15},{""src"":""Sort-RetrieveValue-Line-Line.png"",""x"":916,""y"":15},{""src"":""Sort-RetrieveValue-Line-Mark.png"",""x"":831,""y"":31},{""src"":""Sort-RetrieveValue-Line-Opacity.png"",""x"":1028,""y"":23},{""src"":""Sort-RetrieveValue-Line-Text.png"",""x"":1095,""y"":45},{""src"":""Sort-RetrieveValue-Line-Opacity.png"",""x"":323,""y"":36},{""src"":""Sort-RetrieveValue-Line-Opacity.png"",""x"":323,""y"":36},{""src"":""Sort-RetrieveValue-Line-Opacity.png"",""x"":323,""y"":36},{""src"":""Sort-RetrieveValue-Line-Mark.png"",""x"":540,""y"":40},{""src"":""Sort-RetrieveValue-Line-Text.png"",""x"":1202,""y"":36},{""src"":""Sort-RetrieveValue-Line-Text.png"",""x"":1202,""y"":36},{""src"":""Sort-RetrieveValue-Line-Line.png"",""x"":1081,""y"":8}]","[{""src"":""Sort-RetrieveValue-Line-Color.png"",""x"":900,""y"":13},{""src"":""Sort-RetrieveValue-Line-Line.png"",""x"":1081,""y"":8},{""src"":""Sort-RetrieveValue-Line-Mark.png"",""x"":540,""y"":40},{""src"":""Sort-RetrieveValue-Line-Opacity.png"",""x"":323,""y"":36},{""src"":""Sort-RetrieveValue-Line-Text.png"",""x"":1202,""y"":36}]"
"","","","Safari","18.0","","","","","","","free-sort","57","1129329","0.0-57.0","381","1","2024-07-29 18:48:29","b0e02d76891de4098917a4775b26ae70","104.28.94.167","Mozilla/5.0 (Macintosh; Intel Mac OS X 10_15_7) AppleWebKit/605.1.15 (KHTML, like Gecko) Version/18.0 Safari/605.1.15","Macintosh","OS X","10_15_7","https://wvbvqp7xwd.cognition.run/","en-US,en;q=0.9","65483","","","","","","","","","","[{""src"":""Sort-Filter-Scatter-Bound.png"",""x"":371,""y"":17},{""src"":""Sort-Filter-Scatter-Color.png"",""x"":211,""y"":21},{""src"":""Sort-Filter-Scatter-Line.png"",""x"":74,""y"":9},{""src"":""Sort-Filter-Scatter-Opacity.png"",""x"":116,""y"":12},{""src"":""Sort-Filter-Scatter-Shade.png"",""x"":319,""y"":27}]","[{""src"":""Sort-Filter-Scatter-Shade.png"",""x"":951,""y"":36},{""src"":""Sort-Filter-Scatter-Shade.png"",""x"":951,""y"":36},{""src"":""Sort-Filter-Scatter-Color.png"",""x"":1179,""y"":-1},{""src"":""Sort-Filter-Scatter-Shade.png"",""x"":951,""y"":36},{""src"":""Sort-Filter-Scatter-Shade.png"",""x"":951,""y"":36},{""src"":""Sort-Filter-Scatter-Shade.png"",""x"":951,""y"":36},{""src"":""Sort-Filter-Scatter-Shade.png"",""x"":951,""y"":36},{""src"":""Sort-Filter-Scatter-Shade.png"",""x"":951,""y"":36},{""src"":""Sort-Filter-Scatter-Bound.png"",""x"":1151,""y"":-8},{""src"":""Sort-Filter-Scatter-Bound.png"",""x"":1151,""y"":-8},{""src"":""Sort-Filter-Scatter-Bound.png"",""x"":1151,""y"":-8},{""src"":""Sort-Filter-Scatter-Color.png"",""x"":1179,""y"":-1},{""src"":""Sort-Filter-Scatter-Shade.png"",""x"":951,""y"":36},{""src"":""Sort-Filter-Scatter-Opacity.png"",""x"":647,""y"":12},{""src"":""Sort-Filter-Scatter-Shade.png"",""x"":951,""y"":36},{""src"":""Sort-Filter-Scatter-Color.png"",""x"":1179,""y"":-1},{""src"":""Sort-Filter-Scatter-Opacity.png"",""x"":752,""y"":-7},{""src"":""Sort-Filter-Scatter-Opacity.png"",""x"":752,""y"":-7},{""src"":""Sort-Filter-Scatter-Opacity.png"",""x"":752,""y"":-7},{""src"":""Sort-Filter-Scatter-Line.png"",""x"":382,""y"":11},{""src"":""Sort-Filter-Scatter-Line.png"",""x"":382,""y"":11},{""src"":""Sort-Filter-Scatter-Line.png"",""x"":382,""y"":11},{""src"":""Sort-Filter-Scatter-Line.png"",""x"":839,""y"":61},{""src"":""Sort-Filter-Scatter-Line.png"",""x"":839,""y"":61},{""src"":""Sort-Filter-Scatter-Opacity.png"",""x"":704,""y"":8},{""src"":""Sort-Filter-Scatter-Line.png"",""x"":839,""y"":61},{""src"":""Sort-Filter-Scatter-Line.png"",""x"":839,""y"":61},{""src"":""Sort-Filter-Scatter-Opacity.png"",""x"":704,""y"":8},{""src"":""Sort-Filter-Scatter-Opacity.png"",""x"":704,""y"":8},{""src"":""Sort-Filter-Scatter-Line.png"",""x"":839,""y"":61},{""src"":""Sort-Filter-Scatter-Line.png"",""x"":839,""y"":61},{""src"":""Sort-Filter-Scatter-Opacity.png"",""x"":704,""y"":8},{""src"":""Sort-Filter-Scatter-Line.png"",""x"":839,""y"":61}]","[{""src"":""Sort-Filter-Scatter-Bound.png"",""x"":1151,""y"":-8},{""src"":""Sort-Filter-Scatter-Color.png"",""x"":1179,""y"":-1},{""src"":""Sort-Filter-Scatter-Line.png"",""x"":839,""y"":61},{""src"":""Sort-Filter-Scatter-Opacity.png"",""x"":704,""y"":8},{""src"":""Sort-Filter-Scatter-Shade.png"",""x"":951,""y"":36}]"
"","","","Safari","18.0","","","","","","","html-button-response","58","1148095","0.0-58.0","381","1","2024-07-29 18:48:29","b0e02d76891de4098917a4775b26ae70","104.28.94.167","Mozilla/5.0 (Macintosh; Intel Mac OS X 10_15_7) AppleWebKit/605.1.15 (KHTML, like Gecko) Version/18.0 Safari/605.1.15","Macintosh","OS X","10_15_7","https://wvbvqp7xwd.cognition.run/","en-US,en;q=0.9","18763","0","","","","","","","<p> Thanks for your participation! The prolific code is <b>CVE7UWMV</b></p> Please copy and paste the code before you exit.","","","",""
