"width","height","webaudio","browser","browser_version","mobile","os","fullscreen","vsync_rate","webcam","microphone","trial_type","trial_index","time_elapsed","internal_node_id","run_id","condition","recorded_at","source_code_version","ip","user_agent","device","platform","platform_version","referer","accept_language","rt","response","success","item_width_mm","item_height_mm","item_width_px","px2mm","scale_factor","stimulus","question_order","init_locations","moves","final_locations"
"2560","1271","true","Chrome","127.0.0.0","false","Windows 10","true","61.37","true","true","browser-check","0","5310","0.0-0.0","472","1","2024-07-29 18:51:21","b0e02d76891de4098917a4775b26ae70","69.89.105.40","Mozilla/5.0 (Windows NT 10.0; Win64; x64) AppleWebKit/537.36 (KHTML, like Gecko) Chrome/127.0.0.0 Safari/537.36","WebKit","Windows","10.0","https://wvbvqp7xwd.cognition.run/","en-US,en;q=0.9,nl;q=0.8,eo;q=0.7","","","","","","","","","","","","",""
"","","","Chrome","127.0.0.0","","","","","","","survey-text","1","10506","0.0-1.0","472","1","2024-07-29 18:51:21","b0e02d76891de4098917a4775b26ae70","69.89.105.40","Mozilla/5.0 (Windows NT 10.0; Win64; x64) AppleWebKit/537.36 (KHTML, like Gecko) Chrome/127.0.0.0 Safari/537.36","WebKit","Windows","10.0","https://wvbvqp7xwd.cognition.run/","en-US,en;q=0.9,nl;q=0.8,eo;q=0.7","5192","{""Q0"":""66a6c70109d4e21e1a88b999""}","","","","","","","","","","",""
"","","","Chrome","127.0.0.0","","","","","","","fullscreen","2","14576","0.0-2.0","472","1","2024-07-29 18:51:21","b0e02d76891de4098917a4775b26ae70","69.89.105.40","Mozilla/5.0 (Windows NT 10.0; Win64; x64) AppleWebKit/537.36 (KHTML, like Gecko) Chrome/127.0.0.0 Safari/537.36","WebKit","Windows","10.0","https://wvbvqp7xwd.cognition.run/","en-US,en;q=0.9,nl;q=0.8,eo;q=0.7","3059","","true","","","","","","","","","",""
"","","","Chrome","127.0.0.0","","","","","","","virtual-chinrest","3","32288","0.0-3.0","472","1","2024-07-29 18:51:21","b0e02d76891de4098917a4775b26ae70","69.89.105.40","Mozilla/5.0 (Windows NT 10.0; Win64; x64) AppleWebKit/537.36 (KHTML, like Gecko) Chrome/127.0.0.0 Safari/537.36","WebKit","Windows","10.0","https://wvbvqp7xwd.cognition.run/","en-US,en;q=0.9,nl;q=0.8,eo;q=0.7","17707","","","85.6","53.98","428.2407407407407","5","0.8640000000000001","","","","",""
"","","","Chrome","127.0.0.0","","","","","","","html-button-response","4","139160","0.0-4.0","472","1","2024-07-29 18:51:21","b0e02d76891de4098917a4775b26ae70","69.89.105.40","Mozilla/5.0 (Windows NT 10.0; Win64; x64) AppleWebKit/537.36 (KHTML, like Gecko) Chrome/127.0.0.0 Safari/537.36","WebKit","Windows","10.0","https://wvbvqp7xwd.cognition.run/","en-US,en;q=0.9,nl;q=0.8,eo;q=0.7","106870","0","","","","","","","
    <p>If the measurements were done correctly, the square below should be 10 cm x 10 cm.</p>
    <div style=""background-color: black; width: 500px; height: 500px; margin: 20px auto;""></div>
    ","","","",""
"","","","Chrome","127.0.0.0","","","","","","","survey-multi-choice","5","141964","0.0-5.0","472","1","2024-07-29 18:51:21","b0e02d76891de4098917a4775b26ae70","69.89.105.40","Mozilla/5.0 (Windows NT 10.0; Win64; x64) AppleWebKit/537.36 (KHTML, like Gecko) Chrome/127.0.0.0 Safari/537.36","WebKit","Windows","10.0","https://wvbvqp7xwd.cognition.run/","en-US,en;q=0.9,nl;q=0.8,eo;q=0.7","2802","{""Q0"":""durian""}","","","","","","","","[0]","","",""
"","","","Chrome","127.0.0.0","","","","","","","html-button-response","6","142900","0.0-6.0","472","1","2024-07-29 18:51:21","b0e02d76891de4098917a4775b26ae70","69.89.105.40","Mozilla/5.0 (Windows NT 10.0; Win64; x64) AppleWebKit/537.36 (KHTML, like Gecko) Chrome/127.0.0.0 Safari/537.36","WebKit","Windows","10.0","https://wvbvqp7xwd.cognition.run/","en-US,en;q=0.9,nl;q=0.8,eo;q=0.7","934","0","","","","","","","<p>Great! You passed the attention check. Now let's begin!</p>","","","",""
"","","","Chrome","127.0.0.0","","","","","","","html-button-response","7","148316","0.0-7.0","472","1","2024-07-29 18:51:21","b0e02d76891de4098917a4775b26ae70","69.89.105.40","Mozilla/5.0 (Windows NT 10.0; Win64; x64) AppleWebKit/537.36 (KHTML, like Gecko) Chrome/127.0.0.0 Safari/537.36","WebKit","Windows","10.0","https://wvbvqp7xwd.cognition.run/","en-US,en;q=0.9,nl;q=0.8,eo;q=0.7","5415","0","","","","","","","<p>In this experiment, you will see 15 dashboards, each for 20 seconds.</p> <p> You need to <b>remember the data fact</b> shown on the dashboard, and try to recall whether it is <b>True or False</b> later.</p>","","","",""
"","","","Chrome","127.0.0.0","","","","","","","html-button-response","8","151292","0.0-8.0","472","1","2024-07-29 18:51:21","b0e02d76891de4098917a4775b26ae70","69.89.105.40","Mozilla/5.0 (Windows NT 10.0; Win64; x64) AppleWebKit/537.36 (KHTML, like Gecko) Chrome/127.0.0.0 Safari/537.36","WebKit","Windows","10.0","https://wvbvqp7xwd.cognition.run/","en-US,en;q=0.9,nl;q=0.8,eo;q=0.7","2974","0","","","","","","","<p>Your response will be collected and evaluated. If any irregularities are found (such as selecting the same answer for all questions or displaying very low overall accuracy), you may not receive payment.</p>","","","",""
"","","","Chrome","127.0.0.0","","","","","","","image-keyboard-response","9","171295","0.0-9.0","472","1","2024-07-29 18:51:21","b0e02d76891de4098917a4775b26ae70","69.89.105.40","Mozilla/5.0 (Windows NT 10.0; Win64; x64) AppleWebKit/537.36 (KHTML, like Gecko) Chrome/127.0.0.0 Safari/537.36","WebKit","Windows","10.0","https://wvbvqp7xwd.cognition.run/","en-US,en;q=0.9,nl;q=0.8,eo;q=0.7","null","null","","","","","","","Filter-Bar-Color.png","","","",""
"","","","Chrome","127.0.0.0","","","","","","","html-button-response","10","176666","0.0-10.0","472","1","2024-07-29 18:51:21","b0e02d76891de4098917a4775b26ae70","69.89.105.40","Mozilla/5.0 (Windows NT 10.0; Win64; x64) AppleWebKit/537.36 (KHTML, like Gecko) Chrome/127.0.0.0 Safari/537.36","WebKit","Windows","10.0","https://wvbvqp7xwd.cognition.run/","en-US,en;q=0.9,nl;q=0.8,eo;q=0.7","5368","0","","","","","","","<img src=""Filter-Bar-Color-Blur.png"" style=""max-width:80%; margin:10px;""><br>The number of mobile customers in UK drops below 30 million from 2018 to 2019.","","","",""
"","","","Chrome","127.0.0.0","","","","","","","html-button-response","11","178762","0.0-11.0","472","1","2024-07-29 18:51:21","b0e02d76891de4098917a4775b26ae70","69.89.105.40","Mozilla/5.0 (Windows NT 10.0; Win64; x64) AppleWebKit/537.36 (KHTML, like Gecko) Chrome/127.0.0.0 Safari/537.36","WebKit","Windows","10.0","https://wvbvqp7xwd.cognition.run/","en-US,en;q=0.9,nl;q=0.8,eo;q=0.7","2095","0","","","","","","","<img src=""Filter-Bar-Color-Blur.png"" style=""max-width:80%; margin:10px;""><br>The number of hospitals in the U.S. has been higher than 3500 thousands since 2014.","","","",""
"","","","Chrome","127.0.0.0","","","","","","","image-keyboard-response","12","198764","0.0-12.0","472","1","2024-07-29 18:51:21","b0e02d76891de4098917a4775b26ae70","69.89.105.40","Mozilla/5.0 (Windows NT 10.0; Win64; x64) AppleWebKit/537.36 (KHTML, like Gecko) Chrome/127.0.0.0 Safari/537.36","WebKit","Windows","10.0","https://wvbvqp7xwd.cognition.run/","en-US,en;q=0.9,nl;q=0.8,eo;q=0.7","null","null","","","","","","","Range-Bar-Color.png","","","",""
"","","","Chrome","127.0.0.0","","","","","","","html-button-response","13","204995","0.0-13.0","472","1","2024-07-29 18:51:21","b0e02d76891de4098917a4775b26ae70","69.89.105.40","Mozilla/5.0 (Windows NT 10.0; Win64; x64) AppleWebKit/537.36 (KHTML, like Gecko) Chrome/127.0.0.0 Safari/537.36","WebKit","Windows","10.0","https://wvbvqp7xwd.cognition.run/","en-US,en;q=0.9,nl;q=0.8,eo;q=0.7","6229","1","","","","","","","<img src=""Range-Bar-Color-Blur.png"" style=""max-width:80%; margin:10px;""><br>People from most Asian countries spent 50 to 70 hours on smartphones.","","","",""
"","","","Chrome","127.0.0.0","","","","","","","html-button-response","14","206887","0.0-14.0","472","1","2024-07-29 18:51:21","b0e02d76891de4098917a4775b26ae70","69.89.105.40","Mozilla/5.0 (Windows NT 10.0; Win64; x64) AppleWebKit/537.36 (KHTML, like Gecko) Chrome/127.0.0.0 Safari/537.36","WebKit","Windows","10.0","https://wvbvqp7xwd.cognition.run/","en-US,en;q=0.9,nl;q=0.8,eo;q=0.7","1891","1","","","","","","","<img src=""Range-Bar-Color-Blur.png"" style=""max-width:80%; margin:10px;""><br>Since 2014, the unit sales are between 2 and 3 million.","","","",""
"","","","Chrome","127.0.0.0","","","","","","","image-keyboard-response","15","226889","0.0-15.0","472","1","2024-07-29 18:51:21","b0e02d76891de4098917a4775b26ae70","69.89.105.40","Mozilla/5.0 (Windows NT 10.0; Win64; x64) AppleWebKit/537.36 (KHTML, like Gecko) Chrome/127.0.0.0 Safari/537.36","WebKit","Windows","10.0","https://wvbvqp7xwd.cognition.run/","en-US,en;q=0.9,nl;q=0.8,eo;q=0.7","null","null","","","","","","","RetrieveValue-Bar-Text.png","","","",""
"","","","Chrome","127.0.0.0","","","","","","","html-button-response","16","232499","0.0-16.0","472","1","2024-07-29 18:51:21","b0e02d76891de4098917a4775b26ae70","69.89.105.40","Mozilla/5.0 (Windows NT 10.0; Win64; x64) AppleWebKit/537.36 (KHTML, like Gecko) Chrome/127.0.0.0 Safari/537.36","WebKit","Windows","10.0","https://wvbvqp7xwd.cognition.run/","en-US,en;q=0.9,nl;q=0.8,eo;q=0.7","5607","1","","","","","","","<img src=""RetrieveValue-Bar-Text-Blur.png"" style=""max-width:80%; margin:10px;""><br>In 2016, the national debt of Ireland reached the highest.","","","",""
"","","","Chrome","127.0.0.0","","","","","","","html-button-response","17","234478","0.0-17.0","472","1","2024-07-29 18:51:21","b0e02d76891de4098917a4775b26ae70","69.89.105.40","Mozilla/5.0 (Windows NT 10.0; Win64; x64) AppleWebKit/537.36 (KHTML, like Gecko) Chrome/127.0.0.0 Safari/537.36","WebKit","Windows","10.0","https://wvbvqp7xwd.cognition.run/","en-US,en;q=0.9,nl;q=0.8,eo;q=0.7","1978","1","","","","","","","<img src=""RetrieveValue-Bar-Text-Blur.png"" style=""max-width:80%; margin:10px;""><br>In 2007, Waste Management operating value is around 5000 million dollars.","","","",""
"","","","Chrome","127.0.0.0","","","","","","","image-keyboard-response","18","254479","0.0-18.0","472","1","2024-07-29 18:51:21","b0e02d76891de4098917a4775b26ae70","69.89.105.40","Mozilla/5.0 (Windows NT 10.0; Win64; x64) AppleWebKit/537.36 (KHTML, like Gecko) Chrome/127.0.0.0 Safari/537.36","WebKit","Windows","10.0","https://wvbvqp7xwd.cognition.run/","en-US,en;q=0.9,nl;q=0.8,eo;q=0.7","null","null","","","","","","","Trend-Bar-Text.png","","","",""
"","","","Chrome","127.0.0.0","","","","","","","html-button-response","19","257468","0.0-19.0","472","1","2024-07-29 18:51:21","b0e02d76891de4098917a4775b26ae70","69.89.105.40","Mozilla/5.0 (Windows NT 10.0; Win64; x64) AppleWebKit/537.36 (KHTML, like Gecko) Chrome/127.0.0.0 Safari/537.36","WebKit","Windows","10.0","https://wvbvqp7xwd.cognition.run/","en-US,en;q=0.9,nl;q=0.8,eo;q=0.7","2984","0","","","","","","","<img src=""Trend-Bar-Text-Blur.png"" style=""max-width:80%; margin:10px;""><br>The employee number of Brunswick investment banking increased from 2014 to 2017","","","",""
"","","","Chrome","127.0.0.0","","","","","","","html-button-response","20","260947","0.0-20.0","472","1","2024-07-29 18:51:21","b0e02d76891de4098917a4775b26ae70","69.89.105.40","Mozilla/5.0 (Windows NT 10.0; Win64; x64) AppleWebKit/537.36 (KHTML, like Gecko) Chrome/127.0.0.0 Safari/537.36","WebKit","Windows","10.0","https://wvbvqp7xwd.cognition.run/","en-US,en;q=0.9,nl;q=0.8,eo;q=0.7","3479","1","","","","","","","<img src=""Trend-Bar-Text-Blur.png"" style=""max-width:80%; margin:10px;""><br>The alcohol consumption in UK has been increasing since 2010.","","","",""
"","","","Chrome","127.0.0.0","","","","","","","image-keyboard-response","21","280949","0.0-21.0","472","1","2024-07-29 18:51:21","b0e02d76891de4098917a4775b26ae70","69.89.105.40","Mozilla/5.0 (Windows NT 10.0; Win64; x64) AppleWebKit/537.36 (KHTML, like Gecko) Chrome/127.0.0.0 Safari/537.36","WebKit","Windows","10.0","https://wvbvqp7xwd.cognition.run/","en-US,en;q=0.9,nl;q=0.8,eo;q=0.7","null","null","","","","","","","Compare-Bar-Text.png","","","",""
"","","","Chrome","127.0.0.0","","","","","","","html-button-response","22","283927","0.0-22.0","472","1","2024-07-29 18:51:21","b0e02d76891de4098917a4775b26ae70","69.89.105.40","Mozilla/5.0 (Windows NT 10.0; Win64; x64) AppleWebKit/537.36 (KHTML, like Gecko) Chrome/127.0.0.0 Safari/537.36","WebKit","Windows","10.0","https://wvbvqp7xwd.cognition.run/","en-US,en;q=0.9,nl;q=0.8,eo;q=0.7","2971","1","","","","","","","<img src=""Compare-Bar-Text-Blur.png"" style=""max-width:80%; margin:10px;""><br>China is spending less energy than the U.S. in 2019.","","","",""
"","","","Chrome","127.0.0.0","","","","","","","html-button-response","23","288495","0.0-23.0","472","1","2024-07-29 18:51:21","b0e02d76891de4098917a4775b26ae70","69.89.105.40","Mozilla/5.0 (Windows NT 10.0; Win64; x64) AppleWebKit/537.36 (KHTML, like Gecko) Chrome/127.0.0.0 Safari/537.36","WebKit","Windows","10.0","https://wvbvqp7xwd.cognition.run/","en-US,en;q=0.9,nl;q=0.8,eo;q=0.7","4566","0","","","","","","","<img src=""Compare-Bar-Text-Blur.png"" style=""max-width:80%; margin:10px;""><br>The operating profit of Roche group is lower in 2008 than in 2018","","","",""
"","","","Chrome","127.0.0.0","","","","","","","image-keyboard-response","24","308497","0.0-24.0","472","1","2024-07-29 18:51:21","b0e02d76891de4098917a4775b26ae70","69.89.105.40","Mozilla/5.0 (Windows NT 10.0; Win64; x64) AppleWebKit/537.36 (KHTML, like Gecko) Chrome/127.0.0.0 Safari/537.36","WebKit","Windows","10.0","https://wvbvqp7xwd.cognition.run/","en-US,en;q=0.9,nl;q=0.8,eo;q=0.7","null","null","","","","","","","Filter-Line-Color.png","","","",""
"","","","Chrome","127.0.0.0","","","","","","","html-button-response","25","313545","0.0-25.0","472","1","2024-07-29 18:51:21","b0e02d76891de4098917a4775b26ae70","69.89.105.40","Mozilla/5.0 (Windows NT 10.0; Win64; x64) AppleWebKit/537.36 (KHTML, like Gecko) Chrome/127.0.0.0 Safari/537.36","WebKit","Windows","10.0","https://wvbvqp7xwd.cognition.run/","en-US,en;q=0.9,nl;q=0.8,eo;q=0.7","5044","1","","","","","","","<img src=""Filter-Line-Color-Blur.png"" style=""max-width:80%; margin:10px;""><br>The number of hospital in the U.S. has been lower than 3500 thousands since 2003","","","",""
"","","","Chrome","127.0.0.0","","","","","","","html-button-response","26","315796","0.0-26.0","472","1","2024-07-29 18:51:21","b0e02d76891de4098917a4775b26ae70","69.89.105.40","Mozilla/5.0 (Windows NT 10.0; Win64; x64) AppleWebKit/537.36 (KHTML, like Gecko) Chrome/127.0.0.0 Safari/537.36","WebKit","Windows","10.0","https://wvbvqp7xwd.cognition.run/","en-US,en;q=0.9,nl;q=0.8,eo;q=0.7","2249","0","","","","","","","<img src=""Filter-Line-Color-Blur.png"" style=""max-width:80%; margin:10px;""><br>Some penguins are heavier than 5000 g","","","",""
"","","","Chrome","127.0.0.0","","","","","","","image-keyboard-response","27","335798","0.0-27.0","472","1","2024-07-29 18:51:21","b0e02d76891de4098917a4775b26ae70","69.89.105.40","Mozilla/5.0 (Windows NT 10.0; Win64; x64) AppleWebKit/537.36 (KHTML, like Gecko) Chrome/127.0.0.0 Safari/537.36","WebKit","Windows","10.0","https://wvbvqp7xwd.cognition.run/","en-US,en;q=0.9,nl;q=0.8,eo;q=0.7","null","null","","","","","","","Range-Line-Shade.png","","","",""
"","","","Chrome","127.0.0.0","","","","","","","html-button-response","28","340537","0.0-28.0","472","1","2024-07-29 18:51:21","b0e02d76891de4098917a4775b26ae70","69.89.105.40","Mozilla/5.0 (Windows NT 10.0; Win64; x64) AppleWebKit/537.36 (KHTML, like Gecko) Chrome/127.0.0.0 Safari/537.36","WebKit","Windows","10.0","https://wvbvqp7xwd.cognition.run/","en-US,en;q=0.9,nl;q=0.8,eo;q=0.7","4737","1","","","","","","","<img src=""Range-Line-Shade-Blur.png"" style=""max-width:80%; margin:10px;""><br>Since 2014, the unit sales is between 0.5 and 1.4 milion","","","",""
"","","","Chrome","127.0.0.0","","","","","","","html-button-response","29","343780","0.0-29.0","472","1","2024-07-29 18:51:21","b0e02d76891de4098917a4775b26ae70","69.89.105.40","Mozilla/5.0 (Windows NT 10.0; Win64; x64) AppleWebKit/537.36 (KHTML, like Gecko) Chrome/127.0.0.0 Safari/537.36","WebKit","Windows","10.0","https://wvbvqp7xwd.cognition.run/","en-US,en;q=0.9,nl;q=0.8,eo;q=0.7","3241","0","","","","","","","<img src=""Range-Line-Shade-Blur.png"" style=""max-width:80%; margin:10px;""><br>Most countries have less than 10000 income.","","","",""
"","","","Chrome","127.0.0.0","","","","","","","image-keyboard-response","30","363783","0.0-30.0","472","1","2024-07-29 18:51:21","b0e02d76891de4098917a4775b26ae70","69.89.105.40","Mozilla/5.0 (Windows NT 10.0; Win64; x64) AppleWebKit/537.36 (KHTML, like Gecko) Chrome/127.0.0.0 Safari/537.36","WebKit","Windows","10.0","https://wvbvqp7xwd.cognition.run/","en-US,en;q=0.9,nl;q=0.8,eo;q=0.7","null","null","","","","","","","RetrieveValue-Line-Mark.png","","","",""
"","","","Chrome","127.0.0.0","","","","","","","html-button-response","31","368095","0.0-31.0","472","1","2024-07-29 18:51:21","b0e02d76891de4098917a4775b26ae70","69.89.105.40","Mozilla/5.0 (Windows NT 10.0; Win64; x64) AppleWebKit/537.36 (KHTML, like Gecko) Chrome/127.0.0.0 Safari/537.36","WebKit","Windows","10.0","https://wvbvqp7xwd.cognition.run/","en-US,en;q=0.9,nl;q=0.8,eo;q=0.7","4311","1","","","","","","","<img src=""RetrieveValue-Line-Mark-Blur.png"" style=""max-width:80%; margin:10px;""><br>In 2007, Waste Management operating value is around 5000 million dollars.","","","",""
"","","","Chrome","127.0.0.0","","","","","","","html-button-response","32","371197","0.0-32.0","472","1","2024-07-29 18:51:21","b0e02d76891de4098917a4775b26ae70","69.89.105.40","Mozilla/5.0 (Windows NT 10.0; Win64; x64) AppleWebKit/537.36 (KHTML, like Gecko) Chrome/127.0.0.0 Safari/537.36","WebKit","Windows","10.0","https://wvbvqp7xwd.cognition.run/","en-US,en;q=0.9,nl;q=0.8,eo;q=0.7","3100","1","","","","","","","<img src=""RetrieveValue-Line-Mark-Blur.png"" style=""max-width:80%; margin:10px;""><br>Car A has about 300 horsepower and runs 30 miles per gallon.","","","",""
"","","","Chrome","127.0.0.0","","","","","","","image-keyboard-response","33","391199","0.0-33.0","472","1","2024-07-29 18:51:21","b0e02d76891de4098917a4775b26ae70","69.89.105.40","Mozilla/5.0 (Windows NT 10.0; Win64; x64) AppleWebKit/537.36 (KHTML, like Gecko) Chrome/127.0.0.0 Safari/537.36","WebKit","Windows","10.0","https://wvbvqp7xwd.cognition.run/","en-US,en;q=0.9,nl;q=0.8,eo;q=0.7","null","null","","","","","","","Trend-Line-Opacity.png","","","",""
"","","","Chrome","127.0.0.0","","","","","","","html-button-response","34","394000","0.0-34.0","472","1","2024-07-29 18:51:21","b0e02d76891de4098917a4775b26ae70","69.89.105.40","Mozilla/5.0 (Windows NT 10.0; Win64; x64) AppleWebKit/537.36 (KHTML, like Gecko) Chrome/127.0.0.0 Safari/537.36","WebKit","Windows","10.0","https://wvbvqp7xwd.cognition.run/","en-US,en;q=0.9,nl;q=0.8,eo;q=0.7","2794","0","","","","","","","<img src=""Trend-Line-Opacity-Blur.png"" style=""max-width:80%; margin:10px;""><br>The alchol consumption in UK has been droping since 2010","","","",""
"","","","Chrome","127.0.0.0","","","","","","","html-button-response","35","395620","0.0-35.0","472","1","2024-07-29 18:51:21","b0e02d76891de4098917a4775b26ae70","69.89.105.40","Mozilla/5.0 (Windows NT 10.0; Win64; x64) AppleWebKit/537.36 (KHTML, like Gecko) Chrome/127.0.0.0 Safari/537.36","WebKit","Windows","10.0","https://wvbvqp7xwd.cognition.run/","en-US,en;q=0.9,nl;q=0.8,eo;q=0.7","1619","0","","","","","","","<img src=""Trend-Line-Opacity-Blur.png"" style=""max-width:80%; margin:10px;""><br>The rotten tomatoes rating is related to IMDB rating","","","",""
"","","","Chrome","127.0.0.0","","","","","","","image-keyboard-response","36","415623","0.0-36.0","472","1","2024-07-29 18:51:21","b0e02d76891de4098917a4775b26ae70","69.89.105.40","Mozilla/5.0 (Windows NT 10.0; Win64; x64) AppleWebKit/537.36 (KHTML, like Gecko) Chrome/127.0.0.0 Safari/537.36","WebKit","Windows","10.0","https://wvbvqp7xwd.cognition.run/","en-US,en;q=0.9,nl;q=0.8,eo;q=0.7","null","null","","","","","","","Compare-Line-Color.png","","","",""
"","","","Chrome","127.0.0.0","","","","","","","html-button-response","37","418090","0.0-37.0","472","1","2024-07-29 18:51:21","b0e02d76891de4098917a4775b26ae70","69.89.105.40","Mozilla/5.0 (Windows NT 10.0; Win64; x64) AppleWebKit/537.36 (KHTML, like Gecko) Chrome/127.0.0.0 Safari/537.36","WebKit","Windows","10.0","https://wvbvqp7xwd.cognition.run/","en-US,en;q=0.9,nl;q=0.8,eo;q=0.7","2466","0","","","","","","","<img src=""Compare-Line-Color-Blur.png"" style=""max-width:80%; margin:10px;""><br>The operating profit of Roche group is higher in 2008 than in 2018.","","","",""
"","","","Chrome","127.0.0.0","","","","","","","html-button-response","38","421713","0.0-38.0","472","1","2024-07-29 18:51:21","b0e02d76891de4098917a4775b26ae70","69.89.105.40","Mozilla/5.0 (Windows NT 10.0; Win64; x64) AppleWebKit/537.36 (KHTML, like Gecko) Chrome/127.0.0.0 Safari/537.36","WebKit","Windows","10.0","https://wvbvqp7xwd.cognition.run/","en-US,en;q=0.9,nl;q=0.8,eo;q=0.7","3622","0","","","","","","","<img src=""Compare-Line-Color-Blur.png"" style=""max-width:80%; margin:10px;""><br>Penguin A has larger mass and longer beak than penguin B","","","",""
"","","","Chrome","127.0.0.0","","","","","","","image-keyboard-response","39","441716","0.0-39.0","472","1","2024-07-29 18:51:21","b0e02d76891de4098917a4775b26ae70","69.89.105.40","Mozilla/5.0 (Windows NT 10.0; Win64; x64) AppleWebKit/537.36 (KHTML, like Gecko) Chrome/127.0.0.0 Safari/537.36","WebKit","Windows","10.0","https://wvbvqp7xwd.cognition.run/","en-US,en;q=0.9,nl;q=0.8,eo;q=0.7","null","null","","","","","","","Filter-Scatter-Bound.png","","","",""
"","","","Chrome","127.0.0.0","","","","","","","html-button-response","40","444043","0.0-40.0","472","1","2024-07-29 18:51:21","b0e02d76891de4098917a4775b26ae70","69.89.105.40","Mozilla/5.0 (Windows NT 10.0; Win64; x64) AppleWebKit/537.36 (KHTML, like Gecko) Chrome/127.0.0.0 Safari/537.36","WebKit","Windows","10.0","https://wvbvqp7xwd.cognition.run/","en-US,en;q=0.9,nl;q=0.8,eo;q=0.7","2323","1","","","","","","","<img src=""Filter-Scatter-Bound-Blur.png"" style=""max-width:80%; margin:10px;""><br>Some penguins are heavier than 1000 g.","","","",""
"","","","Chrome","127.0.0.0","","","","","","","html-button-response","41","449253","0.0-41.0","472","1","2024-07-29 18:51:21","b0e02d76891de4098917a4775b26ae70","69.89.105.40","Mozilla/5.0 (Windows NT 10.0; Win64; x64) AppleWebKit/537.36 (KHTML, like Gecko) Chrome/127.0.0.0 Safari/537.36","WebKit","Windows","10.0","https://wvbvqp7xwd.cognition.run/","en-US,en;q=0.9,nl;q=0.8,eo;q=0.7","5209","1","","","","","","","<img src=""Filter-Scatter-Bound-Blur.png"" style=""max-width:80%; margin:10px;""><br>The number of mobile customers in UK drops below 20 million from 2018 to 2019.","","","",""
"","","","Chrome","127.0.0.0","","","","","","","image-keyboard-response","42","469255","0.0-42.0","472","1","2024-07-29 18:51:21","b0e02d76891de4098917a4775b26ae70","69.89.105.40","Mozilla/5.0 (Windows NT 10.0; Win64; x64) AppleWebKit/537.36 (KHTML, like Gecko) Chrome/127.0.0.0 Safari/537.36","WebKit","Windows","10.0","https://wvbvqp7xwd.cognition.run/","en-US,en;q=0.9,nl;q=0.8,eo;q=0.7","null","null","","","","","","","Range-Scatter-Bound.png","","","",""
"","","","Chrome","127.0.0.0","","","","","","","html-button-response","43","472062","0.0-43.0","472","1","2024-07-29 18:51:21","b0e02d76891de4098917a4775b26ae70","69.89.105.40","Mozilla/5.0 (Windows NT 10.0; Win64; x64) AppleWebKit/537.36 (KHTML, like Gecko) Chrome/127.0.0.0 Safari/537.36","WebKit","Windows","10.0","https://wvbvqp7xwd.cognition.run/","en-US,en;q=0.9,nl;q=0.8,eo;q=0.7","2803","1","","","","","","","<img src=""Range-Scatter-Bound-Blur.png"" style=""max-width:80%; margin:10px;""><br>Most countries have less than 10000 income.","","","",""
"","","","Chrome","127.0.0.0","","","","","","","html-button-response","44","482465","0.0-44.0","472","1","2024-07-29 18:51:21","b0e02d76891de4098917a4775b26ae70","69.89.105.40","Mozilla/5.0 (Windows NT 10.0; Win64; x64) AppleWebKit/537.36 (KHTML, like Gecko) Chrome/127.0.0.0 Safari/537.36","WebKit","Windows","10.0","https://wvbvqp7xwd.cognition.run/","en-US,en;q=0.9,nl;q=0.8,eo;q=0.7","10402","0","","","","","","","<img src=""Range-Scatter-Bound-Blur.png"" style=""max-width:80%; margin:10px;""><br>People from most Asian countries spent 50 to 70 hours on smartphones.","","","",""
"","","","Chrome","127.0.0.0","","","","","","","image-keyboard-response","45","502467","0.0-45.0","472","1","2024-07-29 18:51:21","b0e02d76891de4098917a4775b26ae70","69.89.105.40","Mozilla/5.0 (Windows NT 10.0; Win64; x64) AppleWebKit/537.36 (KHTML, like Gecko) Chrome/127.0.0.0 Safari/537.36","WebKit","Windows","10.0","https://wvbvqp7xwd.cognition.run/","en-US,en;q=0.9,nl;q=0.8,eo;q=0.7","null","null","","","","","","","RetrieveValue-Scatter-Text.png","","","",""
"","","","Chrome","127.0.0.0","","","","","","","html-button-response","46","507126","0.0-46.0","472","1","2024-07-29 18:51:21","b0e02d76891de4098917a4775b26ae70","69.89.105.40","Mozilla/5.0 (Windows NT 10.0; Win64; x64) AppleWebKit/537.36 (KHTML, like Gecko) Chrome/127.0.0.0 Safari/537.36","WebKit","Windows","10.0","https://wvbvqp7xwd.cognition.run/","en-US,en;q=0.9,nl;q=0.8,eo;q=0.7","4654","0","","","","","","","<img src=""RetrieveValue-Scatter-Text-Blur.png"" style=""max-width:80%; margin:10px;""><br>Car A has about 160 horsepower and runs 15 miles per gallon","","","",""
"","","","Chrome","127.0.0.0","","","","","","","html-button-response","47","510959","0.0-47.0","472","1","2024-07-29 18:51:21","b0e02d76891de4098917a4775b26ae70","69.89.105.40","Mozilla/5.0 (Windows NT 10.0; Win64; x64) AppleWebKit/537.36 (KHTML, like Gecko) Chrome/127.0.0.0 Safari/537.36","WebKit","Windows","10.0","https://wvbvqp7xwd.cognition.run/","en-US,en;q=0.9,nl;q=0.8,eo;q=0.7","3831","1","","","","","","","<img src=""RetrieveValue-Scatter-Text-Blur.png"" style=""max-width:80%; margin:10px;""><br>In 2016, the national debt of Ireland reached the highest.","","","",""
"","","","Chrome","127.0.0.0","","","","","","","image-keyboard-response","48","530961","0.0-48.0","472","1","2024-07-29 18:51:21","b0e02d76891de4098917a4775b26ae70","69.89.105.40","Mozilla/5.0 (Windows NT 10.0; Win64; x64) AppleWebKit/537.36 (KHTML, like Gecko) Chrome/127.0.0.0 Safari/537.36","WebKit","Windows","10.0","https://wvbvqp7xwd.cognition.run/","en-US,en;q=0.9,nl;q=0.8,eo;q=0.7","null","null","","","","","","","Trend-Scatter-Shade.png","","","",""
"","","","Chrome","127.0.0.0","","","","","","","html-button-response","49","532843","0.0-49.0","472","1","2024-07-29 18:51:21","b0e02d76891de4098917a4775b26ae70","69.89.105.40","Mozilla/5.0 (Windows NT 10.0; Win64; x64) AppleWebKit/537.36 (KHTML, like Gecko) Chrome/127.0.0.0 Safari/537.36","WebKit","Windows","10.0","https://wvbvqp7xwd.cognition.run/","en-US,en;q=0.9,nl;q=0.8,eo;q=0.7","1877","0","","","","","","","<img src=""Trend-Scatter-Shade-Blur.png"" style=""max-width:80%; margin:10px;""><br>The rotten tomatoes rating is related to IMDB rating","","","",""
"","","","Chrome","127.0.0.0","","","","","","","html-button-response","50","538004","0.0-50.0","472","1","2024-07-29 18:51:21","b0e02d76891de4098917a4775b26ae70","69.89.105.40","Mozilla/5.0 (Windows NT 10.0; Win64; x64) AppleWebKit/537.36 (KHTML, like Gecko) Chrome/127.0.0.0 Safari/537.36","WebKit","Windows","10.0","https://wvbvqp7xwd.cognition.run/","en-US,en;q=0.9,nl;q=0.8,eo;q=0.7","5159","0","","","","","","","<img src=""Trend-Scatter-Shade-Blur.png"" style=""max-width:80%; margin:10px;""><br>The employee number of Brunswick investment banking decreased from 2014 to 2017.","","","",""
"","","","Chrome","127.0.0.0","","","","","","","image-keyboard-response","51","558008","0.0-51.0","472","1","2024-07-29 18:51:21","b0e02d76891de4098917a4775b26ae70","69.89.105.40","Mozilla/5.0 (Windows NT 10.0; Win64; x64) AppleWebKit/537.36 (KHTML, like Gecko) Chrome/127.0.0.0 Safari/537.36","WebKit","Windows","10.0","https://wvbvqp7xwd.cognition.run/","en-US,en;q=0.9,nl;q=0.8,eo;q=0.7","null","null","","","","","","","Compare-Scatter-Opacity.png","","","",""
"","","","Chrome","127.0.0.0","","","","","","","html-button-response","52","561795","0.0-52.0","472","1","2024-07-29 18:51:21","b0e02d76891de4098917a4775b26ae70","69.89.105.40","Mozilla/5.0 (Windows NT 10.0; Win64; x64) AppleWebKit/537.36 (KHTML, like Gecko) Chrome/127.0.0.0 Safari/537.36","WebKit","Windows","10.0","https://wvbvqp7xwd.cognition.run/","en-US,en;q=0.9,nl;q=0.8,eo;q=0.7","3783","0","","","","","","","<img src=""Compare-Scatter-Opacity-Blur.png"" style=""max-width:80%; margin:10px;""><br>Penguin A has smaller mass and shorter beak than penguin B.","","","",""
"","","","Chrome","127.0.0.0","","","","","","","html-button-response","53","563106","0.0-53.0","472","1","2024-07-29 18:51:21","b0e02d76891de4098917a4775b26ae70","69.89.105.40","Mozilla/5.0 (Windows NT 10.0; Win64; x64) AppleWebKit/537.36 (KHTML, like Gecko) Chrome/127.0.0.0 Safari/537.36","WebKit","Windows","10.0","https://wvbvqp7xwd.cognition.run/","en-US,en;q=0.9,nl;q=0.8,eo;q=0.7","1309","1","","","","","","","<img src=""Compare-Scatter-Opacity-Blur.png"" style=""max-width:80%; margin:10px;""><br>China is spending less energy than the U.S. in 2019.","","","",""
"","","","Chrome","127.0.0.0","","","","","","","survey-multi-choice","54","565244","0.0-54.0","472","1","2024-07-29 18:51:21","b0e02d76891de4098917a4775b26ae70","69.89.105.40","Mozilla/5.0 (Windows NT 10.0; Win64; x64) AppleWebKit/537.36 (KHTML, like Gecko) Chrome/127.0.0.0 Safari/537.36","WebKit","Windows","10.0","https://wvbvqp7xwd.cognition.run/","en-US,en;q=0.9,nl;q=0.8,eo;q=0.7","2137","{""Q0"":""Female""}","","","","","","","","[0]","","",""
"","","","Chrome","127.0.0.0","","","","","","","free-sort","55","582675","0.0-55.0","472","1","2024-07-29 18:51:21","b0e02d76891de4098917a4775b26ae70","69.89.105.40","Mozilla/5.0 (Windows NT 10.0; Win64; x64) AppleWebKit/537.36 (KHTML, like Gecko) Chrome/127.0.0.0 Safari/537.36","WebKit","Windows","10.0","https://wvbvqp7xwd.cognition.run/","en-US,en;q=0.9,nl;q=0.8,eo;q=0.7","17427","","","","","","","","","","[{""src"":""Sort-Compare-Bar-Color.png"",""x"":716,""y"":41},{""src"":""Sort-Compare-Bar-Mark.png"",""x"":908,""y"":8},{""src"":""Sort-Compare-Bar-Opacity.png"",""x"":577,""y"":31},{""src"":""Sort-Compare-Bar-Text.png"",""x"":887,""y"":30}]","[{""src"":""Sort-Compare-Bar-Opacity.png"",""x"":624,""y"":115},{""src"":""Sort-Compare-Bar-Color.png"",""x"":1014,""y"":46},{""src"":""Sort-Compare-Bar-Text.png"",""x"":600,""y"":16},{""src"":""Sort-Compare-Bar-Text.png"",""x"":205,""y"":20},{""src"":""Sort-Compare-Bar-Opacity.png"",""x"":619,""y"":54}]","[{""src"":""Sort-Compare-Bar-Color.png"",""x"":1014,""y"":46},{""src"":""Sort-Compare-Bar-Mark.png"",""x"":908,""y"":8},{""src"":""Sort-Compare-Bar-Opacity.png"",""x"":619,""y"":54},{""src"":""Sort-Compare-Bar-Text.png"",""x"":205,""y"":20}]"
"","","","Chrome","127.0.0.0","","","","","","","free-sort","56","612277","0.0-56.0","472","1","2024-07-29 18:51:21","b0e02d76891de4098917a4775b26ae70","69.89.105.40","Mozilla/5.0 (Windows NT 10.0; Win64; x64) AppleWebKit/537.36 (KHTML, like Gecko) Chrome/127.0.0.0 Safari/537.36","WebKit","Windows","10.0","https://wvbvqp7xwd.cognition.run/","en-US,en;q=0.9,nl;q=0.8,eo;q=0.7","29601","","","","","","","","","","[{""src"":""Sort-RetrieveValue-Line-Color.png"",""x"":357,""y"":18},{""src"":""Sort-RetrieveValue-Line-Line.png"",""x"":447,""y"":4},{""src"":""Sort-RetrieveValue-Line-Mark.png"",""x"":4,""y"":34},{""src"":""Sort-RetrieveValue-Line-Opacity.png"",""x"":900,""y"":29},{""src"":""Sort-RetrieveValue-Line-Text.png"",""x"":828,""y"":19}]","[{""src"":""Sort-RetrieveValue-Line-Mark.png"",""x"":420,""y"":35},{""src"":""Sort-RetrieveValue-Line-Text.png"",""x"":917,""y"":30},{""src"":""Sort-RetrieveValue-Line-Mark.png"",""x"":713,""y"":36},{""src"":""Sort-RetrieveValue-Line-Line.png"",""x"":565,""y"":38},{""src"":""Sort-RetrieveValue-Line-Color.png"",""x"":377,""y"":9},{""src"":""Sort-RetrieveValue-Line-Text.png"",""x"":948,""y"":25},{""src"":""Sort-RetrieveValue-Line-Mark.png"",""x"":831,""y"":16},{""src"":""Sort-RetrieveValue-Line-Line.png"",""x"":258,""y"":31},{""src"":""Sort-RetrieveValue-Line-Color.png"",""x"":485,""y"":23},{""src"":""Sort-RetrieveValue-Line-Mark.png"",""x"":529,""y"":17},{""src"":""Sort-RetrieveValue-Line-Mark.png"",""x"":693,""y"":24},{""src"":""Sort-RetrieveValue-Line-Text.png"",""x"":1097,""y"":30},{""src"":""Sort-RetrieveValue-Line-Opacity.png"",""x"":69,""y"":32}]","[{""src"":""Sort-RetrieveValue-Line-Color.png"",""x"":485,""y"":23},{""src"":""Sort-RetrieveValue-Line-Line.png"",""x"":258,""y"":31},{""src"":""Sort-RetrieveValue-Line-Mark.png"",""x"":693,""y"":24},{""src"":""Sort-RetrieveValue-Line-Opacity.png"",""x"":69,""y"":32},{""src"":""Sort-RetrieveValue-Line-Text.png"",""x"":1097,""y"":30}]"
"","","","Chrome","127.0.0.0","","","","","","","free-sort","57","623723","0.0-57.0","472","1","2024-07-29 18:51:21","b0e02d76891de4098917a4775b26ae70","69.89.105.40","Mozilla/5.0 (Windows NT 10.0; Win64; x64) AppleWebKit/537.36 (KHTML, like Gecko) Chrome/127.0.0.0 Safari/537.36","WebKit","Windows","10.0","https://wvbvqp7xwd.cognition.run/","en-US,en;q=0.9,nl;q=0.8,eo;q=0.7","11444","","","","","","","","","","[{""src"":""Sort-Range-Scatter-Bound.png"",""x"":829,""y"":17},{""src"":""Sort-Range-Scatter-Line.png"",""x"":579,""y"":16},{""src"":""Sort-Range-Scatter-Color.png"",""x"":501,""y"":9},{""src"":""Sort-Range-Scatter-Opacity.png"",""x"":218,""y"":7},{""src"":""Sort-Range-Scatter-Shade.png"",""x"":311,""y"":23}]","[{""src"":""Sort-Range-Scatter-Color.png"",""x"":1033,""y"":19},{""src"":""Sort-Range-Scatter-Shade.png"",""x"":921,""y"":40},{""src"":""Sort-Range-Scatter-Bound.png"",""x"":750,""y"":13},{""src"":""Sort-Range-Scatter-Line.png"",""x"":480,""y"":10},{""src"":""Sort-Range-Scatter-Opacity.png"",""x"":164,""y"":4},{""src"":""Sort-Range-Scatter-Line.png"",""x"":431,""y"":8},{""src"":""Sort-Range-Scatter-Bound.png"",""x"":691,""y"":0},{""src"":""Sort-Range-Scatter-Color.png"",""x"":1128,""y"":24},{""src"":""Sort-Range-Scatter-Shade.png"",""x"":874,""y"":22}]","[{""src"":""Sort-Range-Scatter-Bound.png"",""x"":691,""y"":0},{""src"":""Sort-Range-Scatter-Line.png"",""x"":431,""y"":8},{""src"":""Sort-Range-Scatter-Color.png"",""x"":1128,""y"":24},{""src"":""Sort-Range-Scatter-Opacity.png"",""x"":164,""y"":4},{""src"":""Sort-Range-Scatter-Shade.png"",""x"":874,""y"":22}]"
"","","","Chrome","127.0.0.0","","","","","","","html-button-response","58","624750","0.0-58.0","472","1","2024-07-29 18:51:21","b0e02d76891de4098917a4775b26ae70","69.89.105.40","Mozilla/5.0 (Windows NT 10.0; Win64; x64) AppleWebKit/537.36 (KHTML, like Gecko) Chrome/127.0.0.0 Safari/537.36","WebKit","Windows","10.0","https://wvbvqp7xwd.cognition.run/","en-US,en;q=0.9,nl;q=0.8,eo;q=0.7","1025","0","","","","","","","<p> Thanks for your participation! The prolific code is <b>CVE7UWMV</b></p> Please copy and paste the code before you exit.","","","",""
