"width","height","webaudio","browser","browser_version","mobile","os","fullscreen","vsync_rate","webcam","microphone","trial_type","trial_index","time_elapsed","internal_node_id","run_id","condition","recorded_at","source_code_version","ip","user_agent","device","platform","platform_version","referer","accept_language","rt","response","success","item_width_mm","item_height_mm","item_width_px","px2mm","scale_factor","stimulus","question_order","init_locations","moves","final_locations"
"1920","995","true","Firefox","129.0","false","Mac OS","true","60.85","false","false","browser-check","0","992","0.0-0.0","4750","1","2024-08-12 17:30:30","b0e02d76891de4098917a4775b26ae70","98.143.11.83","Mozilla/5.0 (Macintosh; Intel Mac OS X 10.15; rv:129.0) Gecko/20100101 Firefox/129.0","Macintosh","OS X","10.15","https://wvbvqp7xwd.cognition.run/","en-US,en;q=0.5","","","","","","","","","","","","",""
"","","","Firefox","129.0","","","","","","","survey-text","1","31713","0.0-1.0","4750","1","2024-08-12 17:30:30","b0e02d76891de4098917a4775b26ae70","98.143.11.83","Mozilla/5.0 (Macintosh; Intel Mac OS X 10.15; rv:129.0) Gecko/20100101 Firefox/129.0","Macintosh","OS X","10.15","https://wvbvqp7xwd.cognition.run/","en-US,en;q=0.5","30719","{""Q0"":""60171c9b1a726593103182b3""}","","","","","","","","","","",""
"","","","Firefox","129.0","","","","","","","fullscreen","2","45240","0.0-2.0","4750","1","2024-08-12 17:30:30","b0e02d76891de4098917a4775b26ae70","98.143.11.83","Mozilla/5.0 (Macintosh; Intel Mac OS X 10.15; rv:129.0) Gecko/20100101 Firefox/129.0","Macintosh","OS X","10.15","https://wvbvqp7xwd.cognition.run/","en-US,en;q=0.5","12410","","true","","","","","","","","","",""
"","","","Firefox","129.0","","","","","","","virtual-chinrest","3","161596","0.0-3.0","4750","1","2024-08-12 17:30:30","b0e02d76891de4098917a4775b26ae70","98.143.11.83","Mozilla/5.0 (Macintosh; Intel Mac OS X 10.15; rv:129.0) Gecko/20100101 Firefox/129.0","Macintosh","OS X","10.15","https://wvbvqp7xwd.cognition.run/","en-US,en;q=0.5","116352","","","85.6","53.98","427.65273311897107","5","0.622","","","","",""
"","","","Firefox","129.0","","","","","","","html-button-response","4","170380","0.0-4.0","4750","1","2024-08-12 17:30:30","b0e02d76891de4098917a4775b26ae70","98.143.11.83","Mozilla/5.0 (Macintosh; Intel Mac OS X 10.15; rv:129.0) Gecko/20100101 Firefox/129.0","Macintosh","OS X","10.15","https://wvbvqp7xwd.cognition.run/","en-US,en;q=0.5","8778","0","","","","","","","
    <p>If the measurements were done correctly, the square below should be 10 cm x 10 cm.</p>
    <div style=""background-color: black; width: 500px; height: 500px; margin: 20px auto;""></div>
    ","","","",""
"","","","Firefox","129.0","","","","","","","survey-multi-choice","5","176714","0.0-5.0","4750","1","2024-08-12 17:30:30","b0e02d76891de4098917a4775b26ae70","98.143.11.83","Mozilla/5.0 (Macintosh; Intel Mac OS X 10.15; rv:129.0) Gecko/20100101 Firefox/129.0","Macintosh","OS X","10.15","https://wvbvqp7xwd.cognition.run/","en-US,en;q=0.5","6330","{""Q0"":""durian""}","","","","","","","","[0]","","",""
"","","","Firefox","129.0","","","","","","","html-button-response","6","180897","0.0-6.0","4750","1","2024-08-12 17:30:30","b0e02d76891de4098917a4775b26ae70","98.143.11.83","Mozilla/5.0 (Macintosh; Intel Mac OS X 10.15; rv:129.0) Gecko/20100101 Firefox/129.0","Macintosh","OS X","10.15","https://wvbvqp7xwd.cognition.run/","en-US,en;q=0.5","4180","0","","","","","","","<p>Great! You passed the attention check. Now let's begin!</p>","","","",""
"","","","Firefox","129.0","","","","","","","html-button-response","7","227164","0.0-7.0","4750","1","2024-08-12 17:30:30","b0e02d76891de4098917a4775b26ae70","98.143.11.83","Mozilla/5.0 (Macintosh; Intel Mac OS X 10.15; rv:129.0) Gecko/20100101 Firefox/129.0","Macintosh","OS X","10.15","https://wvbvqp7xwd.cognition.run/","en-US,en;q=0.5","46264","0","","","","","","","<p>In this experiment, you will see 15 dashboards, each for 20 seconds.</p> <p> You need to <b>remember the data fact</b> shown on the dashboard, and try to recall whether it is <b>True or False</b> later.</p>","","","",""
"","","","Firefox","129.0","","","","","","","html-button-response","8","242180","0.0-8.0","4750","1","2024-08-12 17:30:30","b0e02d76891de4098917a4775b26ae70","98.143.11.83","Mozilla/5.0 (Macintosh; Intel Mac OS X 10.15; rv:129.0) Gecko/20100101 Firefox/129.0","Macintosh","OS X","10.15","https://wvbvqp7xwd.cognition.run/","en-US,en;q=0.5","15013","0","","","","","","","<p>Your response will be collected and evaluated. If any irregularities are found (such as selecting the same answer for all questions or displaying very low overall accuracy), you may not receive payment.</p>","","","",""
"","","","Firefox","129.0","","","","","","","image-keyboard-response","9","262188","0.0-9.0","4750","1","2024-08-12 17:30:30","b0e02d76891de4098917a4775b26ae70","98.143.11.83","Mozilla/5.0 (Macintosh; Intel Mac OS X 10.15; rv:129.0) Gecko/20100101 Firefox/129.0","Macintosh","OS X","10.15","https://wvbvqp7xwd.cognition.run/","en-US,en;q=0.5","null","null","","","","","","","Filter-Bar-Opacity.png","","","",""
"","","","Firefox","129.0","","","","","","","html-button-response","10","270815","0.0-10.0","4750","1","2024-08-12 17:30:30","b0e02d76891de4098917a4775b26ae70","98.143.11.83","Mozilla/5.0 (Macintosh; Intel Mac OS X 10.15; rv:129.0) Gecko/20100101 Firefox/129.0","Macintosh","OS X","10.15","https://wvbvqp7xwd.cognition.run/","en-US,en;q=0.5","8622","1","","","","","","","<img src=""Filter-Bar-Opacity-Blur.png"" style=""max-width:80%; margin:10px;""><br>The number of mobile customers in UK drops below 20 million from 2018 to 2019.","","","",""
"","","","Firefox","129.0","","","","","","","html-button-response","11","299945","0.0-11.0","4750","1","2024-08-12 17:30:30","b0e02d76891de4098917a4775b26ae70","98.143.11.83","Mozilla/5.0 (Macintosh; Intel Mac OS X 10.15; rv:129.0) Gecko/20100101 Firefox/129.0","Macintosh","OS X","10.15","https://wvbvqp7xwd.cognition.run/","en-US,en;q=0.5","29129","1","","","","","","","<img src=""Filter-Bar-Opacity-Blur.png"" style=""max-width:80%; margin:10px;""><br>The number of hospitals in the U.S. has been higher than 3500 thousands since 2014.","","","",""
"","","","Firefox","129.0","","","","","","","image-keyboard-response","12","319952","0.0-12.0","4750","1","2024-08-12 17:30:30","b0e02d76891de4098917a4775b26ae70","98.143.11.83","Mozilla/5.0 (Macintosh; Intel Mac OS X 10.15; rv:129.0) Gecko/20100101 Firefox/129.0","Macintosh","OS X","10.15","https://wvbvqp7xwd.cognition.run/","en-US,en;q=0.5","null","null","","","","","","","Range-Bar-Color.png","","","",""
"","","","Firefox","129.0","","","","","","","html-button-response","13","332780","0.0-13.0","4750","1","2024-08-12 17:30:30","b0e02d76891de4098917a4775b26ae70","98.143.11.83","Mozilla/5.0 (Macintosh; Intel Mac OS X 10.15; rv:129.0) Gecko/20100101 Firefox/129.0","Macintosh","OS X","10.15","https://wvbvqp7xwd.cognition.run/","en-US,en;q=0.5","12824","1","","","","","","","<img src=""Range-Bar-Color-Blur.png"" style=""max-width:80%; margin:10px;""><br>People from most Asian countries spent 80 to 100 hours on smartphones.","","","",""
"","","","Firefox","129.0","","","","","","","html-button-response","14","338597","0.0-14.0","4750","1","2024-08-12 17:30:30","b0e02d76891de4098917a4775b26ae70","98.143.11.83","Mozilla/5.0 (Macintosh; Intel Mac OS X 10.15; rv:129.0) Gecko/20100101 Firefox/129.0","Macintosh","OS X","10.15","https://wvbvqp7xwd.cognition.run/","en-US,en;q=0.5","5815","0","","","","","","","<img src=""Range-Bar-Color-Blur.png"" style=""max-width:80%; margin:10px;""><br>Since 2014, the unit sales are between 2 and 3 million.","","","",""
"","","","Firefox","129.0","","","","","","","image-keyboard-response","15","358606","0.0-15.0","4750","1","2024-08-12 17:30:30","b0e02d76891de4098917a4775b26ae70","98.143.11.83","Mozilla/5.0 (Macintosh; Intel Mac OS X 10.15; rv:129.0) Gecko/20100101 Firefox/129.0","Macintosh","OS X","10.15","https://wvbvqp7xwd.cognition.run/","en-US,en;q=0.5","null","null","","","","","","","RetrieveValue-Bar-Text.png","","","",""
"","","","Firefox","129.0","","","","","","","html-button-response","16","375798","0.0-16.0","4750","1","2024-08-12 17:30:30","b0e02d76891de4098917a4775b26ae70","98.143.11.83","Mozilla/5.0 (Macintosh; Intel Mac OS X 10.15; rv:129.0) Gecko/20100101 Firefox/129.0","Macintosh","OS X","10.15","https://wvbvqp7xwd.cognition.run/","en-US,en;q=0.5","17189","0","","","","","","","<img src=""RetrieveValue-Bar-Text-Blur.png"" style=""max-width:80%; margin:10px;""><br>In 2016, the national debt of Ireland reach the lowest.","","","",""
"","","","Firefox","129.0","","","","","","","html-button-response","17","394163","0.0-17.0","4750","1","2024-08-12 17:30:30","b0e02d76891de4098917a4775b26ae70","98.143.11.83","Mozilla/5.0 (Macintosh; Intel Mac OS X 10.15; rv:129.0) Gecko/20100101 Firefox/129.0","Macintosh","OS X","10.15","https://wvbvqp7xwd.cognition.run/","en-US,en;q=0.5","18363","0","","","","","","","<img src=""RetrieveValue-Bar-Text-Blur.png"" style=""max-width:80%; margin:10px;""><br>In 2007, Waste Management operating value is around 13000 million dollars","","","",""
"","","","Firefox","129.0","","","","","","","image-keyboard-response","18","414170","0.0-18.0","4750","1","2024-08-12 17:30:30","b0e02d76891de4098917a4775b26ae70","98.143.11.83","Mozilla/5.0 (Macintosh; Intel Mac OS X 10.15; rv:129.0) Gecko/20100101 Firefox/129.0","Macintosh","OS X","10.15","https://wvbvqp7xwd.cognition.run/","en-US,en;q=0.5","null","null","","","","","","","Trend-Bar-Color.png","","","",""
"","","","Firefox","129.0","","","","","","","html-button-response","19","432782","0.0-19.0","4750","1","2024-08-12 17:30:30","b0e02d76891de4098917a4775b26ae70","98.143.11.83","Mozilla/5.0 (Macintosh; Intel Mac OS X 10.15; rv:129.0) Gecko/20100101 Firefox/129.0","Macintosh","OS X","10.15","https://wvbvqp7xwd.cognition.run/","en-US,en;q=0.5","18609","0","","","","","","","<img src=""Trend-Bar-Color-Blur.png"" style=""max-width:80%; margin:10px;""><br>The employee number of Brunswick investment banking increased from 2014 to 2017","","","",""
"","","","Firefox","129.0","","","","","","","html-button-response","20","439181","0.0-20.0","4750","1","2024-08-12 17:30:30","b0e02d76891de4098917a4775b26ae70","98.143.11.83","Mozilla/5.0 (Macintosh; Intel Mac OS X 10.15; rv:129.0) Gecko/20100101 Firefox/129.0","Macintosh","OS X","10.15","https://wvbvqp7xwd.cognition.run/","en-US,en;q=0.5","6396","1","","","","","","","<img src=""Trend-Bar-Color-Blur.png"" style=""max-width:80%; margin:10px;""><br>The alcohol consumption in UK has been increasing since 2010.","","","",""
"","","","Firefox","129.0","","","","","","","image-keyboard-response","21","459231","0.0-21.0","4750","1","2024-08-12 17:30:30","b0e02d76891de4098917a4775b26ae70","98.143.11.83","Mozilla/5.0 (Macintosh; Intel Mac OS X 10.15; rv:129.0) Gecko/20100101 Firefox/129.0","Macintosh","OS X","10.15","https://wvbvqp7xwd.cognition.run/","en-US,en;q=0.5","null","null","","","","","","","Compare-Bar-Color.png","","","",""
"","","","Firefox","129.0","","","","","","","html-button-response","22","467564","0.0-22.0","4750","1","2024-08-12 17:30:30","b0e02d76891de4098917a4775b26ae70","98.143.11.83","Mozilla/5.0 (Macintosh; Intel Mac OS X 10.15; rv:129.0) Gecko/20100101 Firefox/129.0","Macintosh","OS X","10.15","https://wvbvqp7xwd.cognition.run/","en-US,en;q=0.5","8328","1","","","","","","","<img src=""Compare-Bar-Color-Blur.png"" style=""max-width:80%; margin:10px;""><br>China is spending less energy than the U.S. in 2019.","","","",""
"","","","Firefox","129.0","","","","","","","html-button-response","23","469397","0.0-23.0","4750","1","2024-08-12 17:30:30","b0e02d76891de4098917a4775b26ae70","98.143.11.83","Mozilla/5.0 (Macintosh; Intel Mac OS X 10.15; rv:129.0) Gecko/20100101 Firefox/129.0","Macintosh","OS X","10.15","https://wvbvqp7xwd.cognition.run/","en-US,en;q=0.5","1829","1","","","","","","","<img src=""Compare-Bar-Color-Blur.png"" style=""max-width:80%; margin:10px;""><br>The operating profit of Roche group is higher in 2008 than in 2018.","","","",""
"","","","Firefox","129.0","","","","","","","image-keyboard-response","24","489569","0.0-24.0","4750","1","2024-08-12 17:30:30","b0e02d76891de4098917a4775b26ae70","98.143.11.83","Mozilla/5.0 (Macintosh; Intel Mac OS X 10.15; rv:129.0) Gecko/20100101 Firefox/129.0","Macintosh","OS X","10.15","https://wvbvqp7xwd.cognition.run/","en-US,en;q=0.5","null","null","","","","","","","Filter-Line-Opacity.png","","","",""
"","","","Firefox","129.0","","","","","","","html-button-response","25","507549","0.0-25.0","4750","1","2024-08-12 17:30:30","b0e02d76891de4098917a4775b26ae70","98.143.11.83","Mozilla/5.0 (Macintosh; Intel Mac OS X 10.15; rv:129.0) Gecko/20100101 Firefox/129.0","Macintosh","OS X","10.15","https://wvbvqp7xwd.cognition.run/","en-US,en;q=0.5","17976","0","","","","","","","<img src=""Filter-Line-Opacity-Blur.png"" style=""max-width:80%; margin:10px;""><br>The number of hospital in the U.S. has been lower than 3500 thousands since 2003","","","",""
"","","","Firefox","129.0","","","","","","","html-button-response","26","515980","0.0-26.0","4750","1","2024-08-12 17:30:30","b0e02d76891de4098917a4775b26ae70","98.143.11.83","Mozilla/5.0 (Macintosh; Intel Mac OS X 10.15; rv:129.0) Gecko/20100101 Firefox/129.0","Macintosh","OS X","10.15","https://wvbvqp7xwd.cognition.run/","en-US,en;q=0.5","8427","0","","","","","","","<img src=""Filter-Line-Opacity-Blur.png"" style=""max-width:80%; margin:10px;""><br>Some penguins are heavier than 5000 g","","","",""
"","","","Firefox","129.0","","","","","","","image-keyboard-response","27","536149","0.0-27.0","4750","1","2024-08-12 17:30:30","b0e02d76891de4098917a4775b26ae70","98.143.11.83","Mozilla/5.0 (Macintosh; Intel Mac OS X 10.15; rv:129.0) Gecko/20100101 Firefox/129.0","Macintosh","OS X","10.15","https://wvbvqp7xwd.cognition.run/","en-US,en;q=0.5","null","null","","","","","","","Range-Line-Bound.png","","","",""
"","","","Firefox","129.0","","","","","","","html-button-response","28","548031","0.0-28.0","4750","1","2024-08-12 17:30:30","b0e02d76891de4098917a4775b26ae70","98.143.11.83","Mozilla/5.0 (Macintosh; Intel Mac OS X 10.15; rv:129.0) Gecko/20100101 Firefox/129.0","Macintosh","OS X","10.15","https://wvbvqp7xwd.cognition.run/","en-US,en;q=0.5","11878","1","","","","","","","<img src=""Range-Line-Bound-Blur.png"" style=""max-width:80%; margin:10px;""><br>Since 2014, the unit sales are between 2 and 3 million.","","","",""
"","","","Firefox","129.0","","","","","","","html-button-response","29","555681","0.0-29.0","4750","1","2024-08-12 17:30:30","b0e02d76891de4098917a4775b26ae70","98.143.11.83","Mozilla/5.0 (Macintosh; Intel Mac OS X 10.15; rv:129.0) Gecko/20100101 Firefox/129.0","Macintosh","OS X","10.15","https://wvbvqp7xwd.cognition.run/","en-US,en;q=0.5","7648","0","","","","","","","<img src=""Range-Line-Bound-Blur.png"" style=""max-width:80%; margin:10px;""><br>Most countries have less than 10000 income.","","","",""
"","","","Firefox","129.0","","","","","","","image-keyboard-response","30","575689","0.0-30.0","4750","1","2024-08-12 17:30:30","b0e02d76891de4098917a4775b26ae70","98.143.11.83","Mozilla/5.0 (Macintosh; Intel Mac OS X 10.15; rv:129.0) Gecko/20100101 Firefox/129.0","Macintosh","OS X","10.15","https://wvbvqp7xwd.cognition.run/","en-US,en;q=0.5","null","null","","","","","","","RetrieveValue-Line-Text.png","","","",""
"","","","Firefox","129.0","","","","","","","html-button-response","31","583765","0.0-31.0","4750","1","2024-08-12 17:30:30","b0e02d76891de4098917a4775b26ae70","98.143.11.83","Mozilla/5.0 (Macintosh; Intel Mac OS X 10.15; rv:129.0) Gecko/20100101 Firefox/129.0","Macintosh","OS X","10.15","https://wvbvqp7xwd.cognition.run/","en-US,en;q=0.5","8072","1","","","","","","","<img src=""RetrieveValue-Line-Text-Blur.png"" style=""max-width:80%; margin:10px;""><br>In 2007, Waste Management operating value is around 5000 million dollars.","","","",""
"","","","Firefox","129.0","","","","","","","html-button-response","32","605683","0.0-32.0","4750","1","2024-08-12 17:30:30","b0e02d76891de4098917a4775b26ae70","98.143.11.83","Mozilla/5.0 (Macintosh; Intel Mac OS X 10.15; rv:129.0) Gecko/20100101 Firefox/129.0","Macintosh","OS X","10.15","https://wvbvqp7xwd.cognition.run/","en-US,en;q=0.5","21913","1","","","","","","","<img src=""RetrieveValue-Line-Text-Blur.png"" style=""max-width:80%; margin:10px;""><br>Car A has about 300 horsepower and runs 30 miles per gallon.","","","",""
"","","","Firefox","129.0","","","","","","","image-keyboard-response","33","625693","0.0-33.0","4750","1","2024-08-12 17:30:30","b0e02d76891de4098917a4775b26ae70","98.143.11.83","Mozilla/5.0 (Macintosh; Intel Mac OS X 10.15; rv:129.0) Gecko/20100101 Firefox/129.0","Macintosh","OS X","10.15","https://wvbvqp7xwd.cognition.run/","en-US,en;q=0.5","null","null","","","","","","","Trend-Line-Mark.png","","","",""
"","","","Firefox","129.0","","","","","","","html-button-response","34","636647","0.0-34.0","4750","1","2024-08-12 17:30:30","b0e02d76891de4098917a4775b26ae70","98.143.11.83","Mozilla/5.0 (Macintosh; Intel Mac OS X 10.15; rv:129.0) Gecko/20100101 Firefox/129.0","Macintosh","OS X","10.15","https://wvbvqp7xwd.cognition.run/","en-US,en;q=0.5","10950","0","","","","","","","<img src=""Trend-Line-Mark-Blur.png"" style=""max-width:80%; margin:10px;""><br>The alchol consumption in UK has been droping since 2010","","","",""
"","","","Firefox","129.0","","","","","","","html-button-response","35","646799","0.0-35.0","4750","1","2024-08-12 17:30:30","b0e02d76891de4098917a4775b26ae70","98.143.11.83","Mozilla/5.0 (Macintosh; Intel Mac OS X 10.15; rv:129.0) Gecko/20100101 Firefox/129.0","Macintosh","OS X","10.15","https://wvbvqp7xwd.cognition.run/","en-US,en;q=0.5","10150","1","","","","","","","<img src=""Trend-Line-Mark-Blur.png"" style=""max-width:80%; margin:10px;""><br>The rotten tomatoes rating is not related to IMDB rating.","","","",""
"","","","Firefox","129.0","","","","","","","image-keyboard-response","36","667591","0.0-36.0","4750","1","2024-08-12 17:30:30","b0e02d76891de4098917a4775b26ae70","98.143.11.83","Mozilla/5.0 (Macintosh; Intel Mac OS X 10.15; rv:129.0) Gecko/20100101 Firefox/129.0","Macintosh","OS X","10.15","https://wvbvqp7xwd.cognition.run/","en-US,en;q=0.5","null","null","","","","","","","Compare-Line-Color.png","","","",""
"","","","Firefox","129.0","","","","","","","html-button-response","37","680382","0.0-37.0","4750","1","2024-08-12 17:30:30","b0e02d76891de4098917a4775b26ae70","98.143.11.83","Mozilla/5.0 (Macintosh; Intel Mac OS X 10.15; rv:129.0) Gecko/20100101 Firefox/129.0","Macintosh","OS X","10.15","https://wvbvqp7xwd.cognition.run/","en-US,en;q=0.5","12789","1","","","","","","","<img src=""Compare-Line-Color-Blur.png"" style=""max-width:80%; margin:10px;""><br>The operating profit of Roche group is higher in 2008 than in 2018.","","","",""
"","","","Firefox","129.0","","","","","","","html-button-response","38","694516","0.0-38.0","4750","1","2024-08-12 17:30:30","b0e02d76891de4098917a4775b26ae70","98.143.11.83","Mozilla/5.0 (Macintosh; Intel Mac OS X 10.15; rv:129.0) Gecko/20100101 Firefox/129.0","Macintosh","OS X","10.15","https://wvbvqp7xwd.cognition.run/","en-US,en;q=0.5","14129","0","","","","","","","<img src=""Compare-Line-Color-Blur.png"" style=""max-width:80%; margin:10px;""><br>Penguin A has smaller mass and shorter beak than penguin B.","","","",""
"","","","Firefox","129.0","","","","","","","image-keyboard-response","39","714934","0.0-39.0","4750","1","2024-08-12 17:30:30","b0e02d76891de4098917a4775b26ae70","98.143.11.83","Mozilla/5.0 (Macintosh; Intel Mac OS X 10.15; rv:129.0) Gecko/20100101 Firefox/129.0","Macintosh","OS X","10.15","https://wvbvqp7xwd.cognition.run/","en-US,en;q=0.5","null","null","","","","","","","Filter-Scatter-Shade.png","","","",""
"","","","Firefox","129.0","","","","","","","html-button-response","40","720866","0.0-40.0","4750","1","2024-08-12 17:30:30","b0e02d76891de4098917a4775b26ae70","98.143.11.83","Mozilla/5.0 (Macintosh; Intel Mac OS X 10.15; rv:129.0) Gecko/20100101 Firefox/129.0","Macintosh","OS X","10.15","https://wvbvqp7xwd.cognition.run/","en-US,en;q=0.5","5922","0","","","","","","","<img src=""Filter-Scatter-Shade-Blur.png"" style=""max-width:80%; margin:10px;""><br>Some penguins are heavier than 5000 g","","","",""
"","","","Firefox","129.0","","","","","","","html-button-response","41","734915","0.0-41.0","4750","1","2024-08-12 17:30:30","b0e02d76891de4098917a4775b26ae70","98.143.11.83","Mozilla/5.0 (Macintosh; Intel Mac OS X 10.15; rv:129.0) Gecko/20100101 Firefox/129.0","Macintosh","OS X","10.15","https://wvbvqp7xwd.cognition.run/","en-US,en;q=0.5","14044","0","","","","","","","<img src=""Filter-Scatter-Shade-Blur.png"" style=""max-width:80%; margin:10px;""><br>The number of mobile customers in UK drops below 30 million from 2018 to 2019.","","","",""
"","","","Firefox","129.0","","","","","","","image-keyboard-response","42","754923","0.0-42.0","4750","1","2024-08-12 17:30:30","b0e02d76891de4098917a4775b26ae70","98.143.11.83","Mozilla/5.0 (Macintosh; Intel Mac OS X 10.15; rv:129.0) Gecko/20100101 Firefox/129.0","Macintosh","OS X","10.15","https://wvbvqp7xwd.cognition.run/","en-US,en;q=0.5","null","null","","","","","","","Range-Scatter-Opacity.png","","","",""
"","","","Firefox","129.0","","","","","","","html-button-response","43","762000","0.0-43.0","4750","1","2024-08-12 17:30:30","b0e02d76891de4098917a4775b26ae70","98.143.11.83","Mozilla/5.0 (Macintosh; Intel Mac OS X 10.15; rv:129.0) Gecko/20100101 Firefox/129.0","Macintosh","OS X","10.15","https://wvbvqp7xwd.cognition.run/","en-US,en;q=0.5","7071","0","","","","","","","<img src=""Range-Scatter-Opacity-Blur.png"" style=""max-width:80%; margin:10px;""><br>Most countries have less than 10000 income.","","","",""
"","","","Firefox","129.0","","","","","","","html-button-response","44","775650","0.0-44.0","4750","1","2024-08-12 17:30:30","b0e02d76891de4098917a4775b26ae70","98.143.11.83","Mozilla/5.0 (Macintosh; Intel Mac OS X 10.15; rv:129.0) Gecko/20100101 Firefox/129.0","Macintosh","OS X","10.15","https://wvbvqp7xwd.cognition.run/","en-US,en;q=0.5","13643","1","","","","","","","<img src=""Range-Scatter-Opacity-Blur.png"" style=""max-width:80%; margin:10px;""><br>People from most Asian countries spent 50 to 70 hours on smartphones.","","","",""
"","","","Firefox","129.0","","","","","","","image-keyboard-response","45","795659","0.0-45.0","4750","1","2024-08-12 17:30:30","b0e02d76891de4098917a4775b26ae70","98.143.11.83","Mozilla/5.0 (Macintosh; Intel Mac OS X 10.15; rv:129.0) Gecko/20100101 Firefox/129.0","Macintosh","OS X","10.15","https://wvbvqp7xwd.cognition.run/","en-US,en;q=0.5","null","null","","","","","","","RetrieveValue-Scatter-Mark.png","","","",""
"","","","Firefox","129.0","","","","","","","html-button-response","46","802132","0.0-46.0","4750","1","2024-08-12 17:30:30","b0e02d76891de4098917a4775b26ae70","98.143.11.83","Mozilla/5.0 (Macintosh; Intel Mac OS X 10.15; rv:129.0) Gecko/20100101 Firefox/129.0","Macintosh","OS X","10.15","https://wvbvqp7xwd.cognition.run/","en-US,en;q=0.5","6470","0","","","","","","","<img src=""RetrieveValue-Scatter-Mark-Blur.png"" style=""max-width:80%; margin:10px;""><br>Car A has about 160 horsepower and runs 15 miles per gallon","","","",""
"","","","Firefox","129.0","","","","","","","html-button-response","47","810250","0.0-47.0","4750","1","2024-08-12 17:30:30","b0e02d76891de4098917a4775b26ae70","98.143.11.83","Mozilla/5.0 (Macintosh; Intel Mac OS X 10.15; rv:129.0) Gecko/20100101 Firefox/129.0","Macintosh","OS X","10.15","https://wvbvqp7xwd.cognition.run/","en-US,en;q=0.5","8113","1","","","","","","","<img src=""RetrieveValue-Scatter-Mark-Blur.png"" style=""max-width:80%; margin:10px;""><br>In 2016, the national debt of Ireland reached the highest.","","","",""
"","","","Firefox","129.0","","","","","","","image-keyboard-response","48","830450","0.0-48.0","4750","1","2024-08-12 17:30:30","b0e02d76891de4098917a4775b26ae70","98.143.11.83","Mozilla/5.0 (Macintosh; Intel Mac OS X 10.15; rv:129.0) Gecko/20100101 Firefox/129.0","Macintosh","OS X","10.15","https://wvbvqp7xwd.cognition.run/","en-US,en;q=0.5","null","null","","","","","","","Trend-Scatter-Text.png","","","",""
"","","","Firefox","129.0","","","","","","","html-button-response","49","835583","0.0-49.0","4750","1","2024-08-12 17:30:30","b0e02d76891de4098917a4775b26ae70","98.143.11.83","Mozilla/5.0 (Macintosh; Intel Mac OS X 10.15; rv:129.0) Gecko/20100101 Firefox/129.0","Macintosh","OS X","10.15","https://wvbvqp7xwd.cognition.run/","en-US,en;q=0.5","5127","0","","","","","","","<img src=""Trend-Scatter-Text-Blur.png"" style=""max-width:80%; margin:10px;""><br>The rotten tomatoes rating is related to IMDB rating","","","",""
"","","","Firefox","129.0","","","","","","","html-button-response","50","846047","0.0-50.0","4750","1","2024-08-12 17:30:30","b0e02d76891de4098917a4775b26ae70","98.143.11.83","Mozilla/5.0 (Macintosh; Intel Mac OS X 10.15; rv:129.0) Gecko/20100101 Firefox/129.0","Macintosh","OS X","10.15","https://wvbvqp7xwd.cognition.run/","en-US,en;q=0.5","10462","0","","","","","","","<img src=""Trend-Scatter-Text-Blur.png"" style=""max-width:80%; margin:10px;""><br>The employee number of Brunswick investment banking increased from 2014 to 2017","","","",""
"","","","Firefox","129.0","","","","","","","image-keyboard-response","51","866055","0.0-51.0","4750","1","2024-08-12 17:30:30","b0e02d76891de4098917a4775b26ae70","98.143.11.83","Mozilla/5.0 (Macintosh; Intel Mac OS X 10.15; rv:129.0) Gecko/20100101 Firefox/129.0","Macintosh","OS X","10.15","https://wvbvqp7xwd.cognition.run/","en-US,en;q=0.5","null","null","","","","","","","Compare-Scatter-Text.png","","","",""
"","","","Firefox","129.0","","","","","","","html-button-response","52","873883","0.0-52.0","4750","1","2024-08-12 17:30:30","b0e02d76891de4098917a4775b26ae70","98.143.11.83","Mozilla/5.0 (Macintosh; Intel Mac OS X 10.15; rv:129.0) Gecko/20100101 Firefox/129.0","Macintosh","OS X","10.15","https://wvbvqp7xwd.cognition.run/","en-US,en;q=0.5","7823","1","","","","","","","<img src=""Compare-Scatter-Text-Blur.png"" style=""max-width:80%; margin:10px;""><br>Penguin A has smaller mass and shorter beak than penguin B.","","","",""
"","","","Firefox","129.0","","","","","","","html-button-response","53","882149","0.0-53.0","4750","1","2024-08-12 17:30:30","b0e02d76891de4098917a4775b26ae70","98.143.11.83","Mozilla/5.0 (Macintosh; Intel Mac OS X 10.15; rv:129.0) Gecko/20100101 Firefox/129.0","Macintosh","OS X","10.15","https://wvbvqp7xwd.cognition.run/","en-US,en;q=0.5","8261","0","","","","","","","<img src=""Compare-Scatter-Text-Blur.png"" style=""max-width:80%; margin:10px;""><br>China is spending more energy than the U.S. in 2019","","","",""
"","","","Firefox","129.0","","","","","","","survey-multi-choice","54","886718","0.0-54.0","4750","1","2024-08-12 17:30:30","b0e02d76891de4098917a4775b26ae70","98.143.11.83","Mozilla/5.0 (Macintosh; Intel Mac OS X 10.15; rv:129.0) Gecko/20100101 Firefox/129.0","Macintosh","OS X","10.15","https://wvbvqp7xwd.cognition.run/","en-US,en;q=0.5","4564","{""Q0"":""Male""}","","","","","","","","[0]","","",""
"","","","Firefox","129.0","","","","","","","free-sort","55","951382","0.0-55.0","4750","1","2024-08-12 17:30:30","b0e02d76891de4098917a4775b26ae70","98.143.11.83","Mozilla/5.0 (Macintosh; Intel Mac OS X 10.15; rv:129.0) Gecko/20100101 Firefox/129.0","Macintosh","OS X","10.15","https://wvbvqp7xwd.cognition.run/","en-US,en;q=0.5","64660","","","","","","","","","","[{""src"":""Sort-Range-Bar-Bound.png"",""x"":768,""y"":4},{""src"":""Sort-Range-Bar-Line.png"",""x"":346,""y"":1},{""src"":""Sort-Range-Bar-Color.png"",""x"":1225,""y"":27},{""src"":""Sort-Range-Bar-Opacity.png"",""x"":380,""y"":1},{""src"":""Sort-Range-Bar-Shade.png"",""x"":124,""y"":21}]","[{""src"":""Sort-Range-Bar-Color.png"",""x"":1024,""y"":37},{""src"":""Sort-Range-Bar-Bound.png"",""x"":804,""y"":24},{""src"":""Sort-Range-Bar-Shade.png"",""x"":906,""y"":14},{""src"":""Sort-Range-Bar-Opacity.png"",""x"":734,""y"":19},{""src"":""Sort-Range-Bar-Opacity.png"",""x"":734,""y"":19},{""src"":""Sort-Range-Bar-Shade.png"",""x"":906,""y"":14},{""src"":""Sort-Range-Bar-Line.png"",""x"":346,""y"":1},{""src"":""Sort-Range-Bar-Line.png"",""x"":701,""y"":6},{""src"":""Sort-Range-Bar-Color.png"",""x"":1024,""y"":37},{""src"":""Sort-Range-Bar-Color.png"",""x"":1155,""y"":22},{""src"":""Sort-Range-Bar-Opacity.png"",""x"":1033,""y"":11},{""src"":""Sort-Range-Bar-Shade.png"",""x"":906,""y"":14},{""src"":""Sort-Range-Bar-Bound.png"",""x"":804,""y"":24},{""src"":""Sort-Range-Bar-Line.png"",""x"":576,""y"":18},{""src"":""Sort-Range-Bar-Bound.png"",""x"":765,""y"":22},{""src"":""Sort-Range-Bar-Bound.png"",""x"":837,""y"":12},{""src"":""Sort-Range-Bar-Line.png"",""x"":657,""y"":21},{""src"":""Sort-Range-Bar-Line.png"",""x"":657,""y"":21}]","[{""src"":""Sort-Range-Bar-Bound.png"",""x"":837,""y"":12},{""src"":""Sort-Range-Bar-Line.png"",""x"":657,""y"":21},{""src"":""Sort-Range-Bar-Color.png"",""x"":1155,""y"":22},{""src"":""Sort-Range-Bar-Opacity.png"",""x"":1033,""y"":11},{""src"":""Sort-Range-Bar-Shade.png"",""x"":906,""y"":14}]"
"","","","Firefox","129.0","","","","","","","free-sort","56","996202","0.0-56.0","4750","1","2024-08-12 17:30:30","b0e02d76891de4098917a4775b26ae70","98.143.11.83","Mozilla/5.0 (Macintosh; Intel Mac OS X 10.15; rv:129.0) Gecko/20100101 Firefox/129.0","Macintosh","OS X","10.15","https://wvbvqp7xwd.cognition.run/","en-US,en;q=0.5","44816","","","","","","","","","","[{""src"":""Sort-Filter-Line-Bound.png"",""x"":468,""y"":41},{""src"":""Sort-Filter-Line-Color.png"",""x"":869,""y"":21},{""src"":""Sort-Filter-Line-Line.png"",""x"":1040,""y"":32},{""src"":""Sort-Filter-Line-Opacity.png"",""x"":368,""y"":2},{""src"":""Sort-Filter-Line-Shade.png"",""x"":528,""y"":36}]","[{""src"":""Sort-Filter-Line-Line.png"",""x"":787,""y"":29},{""src"":""Sort-Filter-Line-Shade.png"",""x"":528,""y"":36},{""src"":""Sort-Filter-Line-Shade.png"",""x"":794,""y"":29},{""src"":""Sort-Filter-Line-Shade.png"",""x"":794,""y"":29},{""src"":""Sort-Filter-Line-Shade.png"",""x"":970,""y"":32},{""src"":""Sort-Filter-Line-Shade.png"",""x"":1095,""y"":27},{""src"":""Sort-Filter-Line-Color.png"",""x"":702,""y"":23},{""src"":""Sort-Filter-Line-Bound.png"",""x"":468,""y"":41},{""src"":""Sort-Filter-Line-Bound.png"",""x"":814,""y"":29},{""src"":""Sort-Filter-Line-Bound.png"",""x"":719,""y"":31},{""src"":""Sort-Filter-Line-Line.png"",""x"":786,""y"":29},{""src"":""Sort-Filter-Line-Line.png"",""x"":545,""y"":22},{""src"":""Sort-Filter-Line-Color.png"",""x"":537,""y"":22},{""src"":""Sort-Filter-Line-Bound.png"",""x"":950,""y"":20},{""src"":""Sort-Filter-Line-Bound.png"",""x"":951,""y"":20},{""src"":""Sort-Filter-Line-Bound.png"",""x"":1088,""y"":22},{""src"":""Sort-Filter-Line-Line.png"",""x"":546,""y"":21},{""src"":""Sort-Filter-Line-Line.png"",""x"":769,""y"":15},{""src"":""Sort-Filter-Line-Color.png"",""x"":561,""y"":20},{""src"":""Sort-Filter-Line-Color.png"",""x"":561,""y"":20},{""src"":""Sort-Filter-Line-Color.png"",""x"":561,""y"":20},{""src"":""Sort-Filter-Line-Color.png"",""x"":635,""y"":15},{""src"":""Sort-Filter-Line-Opacity.png"",""x"":368,""y"":2},{""src"":""Sort-Filter-Line-Opacity.png"",""x"":627,""y"":7}]","[{""src"":""Sort-Filter-Line-Bound.png"",""x"":1088,""y"":22},{""src"":""Sort-Filter-Line-Color.png"",""x"":635,""y"":15},{""src"":""Sort-Filter-Line-Line.png"",""x"":769,""y"":15},{""src"":""Sort-Filter-Line-Opacity.png"",""x"":627,""y"":7},{""src"":""Sort-Filter-Line-Shade.png"",""x"":1095,""y"":27}]"
"","","","Firefox","129.0","","","","","","","free-sort","57","1023684","0.0-57.0","4750","1","2024-08-12 17:30:30","b0e02d76891de4098917a4775b26ae70","98.143.11.83","Mozilla/5.0 (Macintosh; Intel Mac OS X 10.15; rv:129.0) Gecko/20100101 Firefox/129.0","Macintosh","OS X","10.15","https://wvbvqp7xwd.cognition.run/","en-US,en;q=0.5","27477","","","","","","","","","","[{""src"":""Sort-Compare-Scatter-Color.png"",""x"":141,""y"":6},{""src"":""Sort-Compare-Scatter-Mark.png"",""x"":916,""y"":35},{""src"":""Sort-Compare-Scatter-Opacity.png"",""x"":54,""y"":30},{""src"":""Sort-Compare-Scatter-Text.png"",""x"":48,""y"":21}]","[{""src"":""Sort-Compare-Scatter-Mark.png"",""x"":736,""y"":38},{""src"":""Sort-Compare-Scatter-Color.png"",""x"":141,""y"":6},{""src"":""Sort-Compare-Scatter-Color.png"",""x"":463,""y"":4},{""src"":""Sort-Compare-Scatter-Color.png"",""x"":463,""y"":4},{""src"":""Sort-Compare-Scatter-Color.png"",""x"":631,""y"":31},{""src"":""Sort-Compare-Scatter-Text.png"",""x"":48,""y"":21},{""src"":""Sort-Compare-Scatter-Text.png"",""x"":412,""y"":24},{""src"":""Sort-Compare-Scatter-Text.png"",""x"":618,""y"":21},{""src"":""Sort-Compare-Scatter-Opacity.png"",""x"":109,""y"":28},{""src"":""Sort-Compare-Scatter-Opacity.png"",""x"":109,""y"":28},{""src"":""Sort-Compare-Scatter-Opacity.png"",""x"":440,""y"":36},{""src"":""Sort-Compare-Scatter-Opacity.png"",""x"":443,""y"":28},{""src"":""Sort-Compare-Scatter-Opacity.png"",""x"":849,""y"":28}]","[{""src"":""Sort-Compare-Scatter-Color.png"",""x"":631,""y"":31},{""src"":""Sort-Compare-Scatter-Mark.png"",""x"":736,""y"":38},{""src"":""Sort-Compare-Scatter-Opacity.png"",""x"":849,""y"":28},{""src"":""Sort-Compare-Scatter-Text.png"",""x"":618,""y"":21}]"
"","","","Firefox","129.0","","","","","","","html-button-response","58","1055099","0.0-58.0","4750","1","2024-08-12 17:30:30","b0e02d76891de4098917a4775b26ae70","98.143.11.83","Mozilla/5.0 (Macintosh; Intel Mac OS X 10.15; rv:129.0) Gecko/20100101 Firefox/129.0","Macintosh","OS X","10.15","https://wvbvqp7xwd.cognition.run/","en-US,en;q=0.5","31410","0","","","","","","","<p> Thanks for your participation! The prolific code is <b>CVE7UWMV</b></p> Please copy and paste the code before you exit.","","","",""
