"width","height","webaudio","browser","browser_version","mobile","os","fullscreen","vsync_rate","webcam","microphone","trial_type","trial_index","time_elapsed","internal_node_id","run_id","condition","recorded_at","source_code_version","ip","user_agent","device","platform","platform_version","referer","accept_language","rt","response","success","item_width_mm","item_height_mm","item_width_px","px2mm","scale_factor","stimulus","question_order","init_locations","moves","final_locations"
"2049","973","true","Chrome","93.0.4577.107","false","Chrome OS","true","61.28","true","true","browser-check","0","41838","0.0-0.0","4828","1","2024-08-12 17:34:19","b0e02d76891de4098917a4775b26ae70","108.203.25.138","Mozilla/5.0 (X11; CrOS x86_64 14092.77.0) AppleWebKit/537.36 (KHTML, like Gecko) Chrome/93.0.4577.107 Safari/537.36","WebKit","ChromeOS","14092.77.0","https://wvbvqp7xwd.cognition.run/","en-US,en;q=0.9","","","","","","","","","","","","",""
"","","","Chrome","93.0.4577.107","","","","","","","survey-text","1","54380","0.0-1.0","4828","1","2024-08-12 17:34:19","b0e02d76891de4098917a4775b26ae70","108.203.25.138","Mozilla/5.0 (X11; CrOS x86_64 14092.77.0) AppleWebKit/537.36 (KHTML, like Gecko) Chrome/93.0.4577.107 Safari/537.36","WebKit","ChromeOS","14092.77.0","https://wvbvqp7xwd.cognition.run/","en-US,en;q=0.9","12528","{""Q0"":""63d41011fab0a09264f61e6c""}","","","","","","","","","","",""
"","","","Chrome","93.0.4577.107","","","","","","","fullscreen","2","55867","0.0-2.0","4828","1","2024-08-12 17:34:19","b0e02d76891de4098917a4775b26ae70","108.203.25.138","Mozilla/5.0 (X11; CrOS x86_64 14092.77.0) AppleWebKit/537.36 (KHTML, like Gecko) Chrome/93.0.4577.107 Safari/537.36","WebKit","ChromeOS","14092.77.0","https://wvbvqp7xwd.cognition.run/","en-US,en;q=0.9","480","","true","","","","","","","","","",""
"","","","Chrome","93.0.4577.107","","","","","","","virtual-chinrest","3","105647","0.0-3.0","4828","1","2024-08-12 17:34:19","b0e02d76891de4098917a4775b26ae70","108.203.25.138","Mozilla/5.0 (X11; CrOS x86_64 14092.77.0) AppleWebKit/537.36 (KHTML, like Gecko) Chrome/93.0.4577.107 Safari/537.36","WebKit","ChromeOS","14092.77.0","https://wvbvqp7xwd.cognition.run/","en-US,en;q=0.9","49773","","","85.6","53.98","428.21782178217825","5","1.6159999999999999","","","","",""
"","","","Chrome","93.0.4577.107","","","","","","","html-button-response","4","110270","0.0-4.0","4828","1","2024-08-12 17:34:19","b0e02d76891de4098917a4775b26ae70","108.203.25.138","Mozilla/5.0 (X11; CrOS x86_64 14092.77.0) AppleWebKit/537.36 (KHTML, like Gecko) Chrome/93.0.4577.107 Safari/537.36","WebKit","ChromeOS","14092.77.0","https://wvbvqp7xwd.cognition.run/","en-US,en;q=0.9","4615","0","","","","","","","
    <p>If the measurements were done correctly, the square below should be 10 cm x 10 cm.</p>
    <div style=""background-color: black; width: 500px; height: 500px; margin: 20px auto;""></div>
    ","","","",""
"","","","Chrome","93.0.4577.107","","","","","","","survey-multi-choice","5","115171","0.0-5.0","4828","1","2024-08-12 17:34:19","b0e02d76891de4098917a4775b26ae70","108.203.25.138","Mozilla/5.0 (X11; CrOS x86_64 14092.77.0) AppleWebKit/537.36 (KHTML, like Gecko) Chrome/93.0.4577.107 Safari/537.36","WebKit","ChromeOS","14092.77.0","https://wvbvqp7xwd.cognition.run/","en-US,en;q=0.9","4894","{""Q0"":""durian""}","","","","","","","","[0]","","",""
"","","","Chrome","93.0.4577.107","","","","","","","html-button-response","6","116828","0.0-6.0","4828","1","2024-08-12 17:34:19","b0e02d76891de4098917a4775b26ae70","108.203.25.138","Mozilla/5.0 (X11; CrOS x86_64 14092.77.0) AppleWebKit/537.36 (KHTML, like Gecko) Chrome/93.0.4577.107 Safari/537.36","WebKit","ChromeOS","14092.77.0","https://wvbvqp7xwd.cognition.run/","en-US,en;q=0.9","1647","0","","","","","","","<p>Great! You passed the attention check. Now let's begin!</p>","","","",""
"","","","Chrome","93.0.4577.107","","","","","","","html-button-response","7","251335","0.0-7.0","4828","1","2024-08-12 17:34:19","b0e02d76891de4098917a4775b26ae70","108.203.25.138","Mozilla/5.0 (X11; CrOS x86_64 14092.77.0) AppleWebKit/537.36 (KHTML, like Gecko) Chrome/93.0.4577.107 Safari/537.36","WebKit","ChromeOS","14092.77.0","https://wvbvqp7xwd.cognition.run/","en-US,en;q=0.9","134502","0","","","","","","","<p>In this experiment, you will see 15 dashboards, each for 20 seconds.</p> <p> You need to <b>remember the data fact</b> shown on the dashboard, and try to recall whether it is <b>True or False</b> later.</p>","","","",""
"","","","Chrome","93.0.4577.107","","","","","","","html-button-response","8","259396","0.0-8.0","4828","1","2024-08-12 17:34:19","b0e02d76891de4098917a4775b26ae70","108.203.25.138","Mozilla/5.0 (X11; CrOS x86_64 14092.77.0) AppleWebKit/537.36 (KHTML, like Gecko) Chrome/93.0.4577.107 Safari/537.36","WebKit","ChromeOS","14092.77.0","https://wvbvqp7xwd.cognition.run/","en-US,en;q=0.9","8057","0","","","","","","","<p>Your response will be collected and evaluated. If any irregularities are found (such as selecting the same answer for all questions or displaying very low overall accuracy), you may not receive payment.</p>","","","",""
"","","","Chrome","93.0.4577.107","","","","","","","image-keyboard-response","9","279408","0.0-9.0","4828","1","2024-08-12 17:34:19","b0e02d76891de4098917a4775b26ae70","108.203.25.138","Mozilla/5.0 (X11; CrOS x86_64 14092.77.0) AppleWebKit/537.36 (KHTML, like Gecko) Chrome/93.0.4577.107 Safari/537.36","WebKit","ChromeOS","14092.77.0","https://wvbvqp7xwd.cognition.run/","en-US,en;q=0.9","null","null","","","","","","","Filter-Bar-Opacity.png","","","",""
"","","","Chrome","93.0.4577.107","","","","","","","html-button-response","10","292091","0.0-10.0","4828","1","2024-08-12 17:34:19","b0e02d76891de4098917a4775b26ae70","108.203.25.138","Mozilla/5.0 (X11; CrOS x86_64 14092.77.0) AppleWebKit/537.36 (KHTML, like Gecko) Chrome/93.0.4577.107 Safari/537.36","WebKit","ChromeOS","14092.77.0","https://wvbvqp7xwd.cognition.run/","en-US,en;q=0.9","12676","0","","","","","","","<img src=""Filter-Bar-Opacity-Blur.png"" style=""max-width:80%; margin:10px;""><br>The number of mobile customers in UK drops below 20 million from 2018 to 2019.","","","",""
"","","","Chrome","93.0.4577.107","","","","","","","html-button-response","11","296951","0.0-11.0","4828","1","2024-08-12 17:34:19","b0e02d76891de4098917a4775b26ae70","108.203.25.138","Mozilla/5.0 (X11; CrOS x86_64 14092.77.0) AppleWebKit/537.36 (KHTML, like Gecko) Chrome/93.0.4577.107 Safari/537.36","WebKit","ChromeOS","14092.77.0","https://wvbvqp7xwd.cognition.run/","en-US,en;q=0.9","4855","1","","","","","","","<img src=""Filter-Bar-Opacity-Blur.png"" style=""max-width:80%; margin:10px;""><br>The number of hospital in the U.S. has been lower than 3500 thousands since 2003","","","",""
"","","","Chrome","93.0.4577.107","","","","","","","image-keyboard-response","12","316956","0.0-12.0","4828","1","2024-08-12 17:34:19","b0e02d76891de4098917a4775b26ae70","108.203.25.138","Mozilla/5.0 (X11; CrOS x86_64 14092.77.0) AppleWebKit/537.36 (KHTML, like Gecko) Chrome/93.0.4577.107 Safari/537.36","WebKit","ChromeOS","14092.77.0","https://wvbvqp7xwd.cognition.run/","en-US,en;q=0.9","null","null","","","","","","","Range-Bar-Color.png","","","",""
"","","","Chrome","93.0.4577.107","","","","","","","html-button-response","13","320596","0.0-13.0","4828","1","2024-08-12 17:34:19","b0e02d76891de4098917a4775b26ae70","108.203.25.138","Mozilla/5.0 (X11; CrOS x86_64 14092.77.0) AppleWebKit/537.36 (KHTML, like Gecko) Chrome/93.0.4577.107 Safari/537.36","WebKit","ChromeOS","14092.77.0","https://wvbvqp7xwd.cognition.run/","en-US,en;q=0.9","3635","0","","","","","","","<img src=""Range-Bar-Color-Blur.png"" style=""max-width:80%; margin:10px;""><br>People from most Asian countries spent 50 to 70 hours on smartphones.","","","",""
"","","","Chrome","93.0.4577.107","","","","","","","html-button-response","14","333210","0.0-14.0","4828","1","2024-08-12 17:34:19","b0e02d76891de4098917a4775b26ae70","108.203.25.138","Mozilla/5.0 (X11; CrOS x86_64 14092.77.0) AppleWebKit/537.36 (KHTML, like Gecko) Chrome/93.0.4577.107 Safari/537.36","WebKit","ChromeOS","14092.77.0","https://wvbvqp7xwd.cognition.run/","en-US,en;q=0.9","12609","1","","","","","","","<img src=""Range-Bar-Color-Blur.png"" style=""max-width:80%; margin:10px;""><br>Since 2014, the unit sales are between 2 and 3 million.","","","",""
"","","","Chrome","93.0.4577.107","","","","","","","image-keyboard-response","15","353216","0.0-15.0","4828","1","2024-08-12 17:34:19","b0e02d76891de4098917a4775b26ae70","108.203.25.138","Mozilla/5.0 (X11; CrOS x86_64 14092.77.0) AppleWebKit/537.36 (KHTML, like Gecko) Chrome/93.0.4577.107 Safari/537.36","WebKit","ChromeOS","14092.77.0","https://wvbvqp7xwd.cognition.run/","en-US,en;q=0.9","null","null","","","","","","","RetrieveValue-Bar-Opacity.png","","","",""
"","","","Chrome","93.0.4577.107","","","","","","","html-button-response","16","368296","0.0-16.0","4828","1","2024-08-12 17:34:19","b0e02d76891de4098917a4775b26ae70","108.203.25.138","Mozilla/5.0 (X11; CrOS x86_64 14092.77.0) AppleWebKit/537.36 (KHTML, like Gecko) Chrome/93.0.4577.107 Safari/537.36","WebKit","ChromeOS","14092.77.0","https://wvbvqp7xwd.cognition.run/","en-US,en;q=0.9","15075","1","","","","","","","<img src=""RetrieveValue-Bar-Opacity-Blur.png"" style=""max-width:80%; margin:10px;""><br>In 2016, the national debt of Ireland reach the lowest.","","","",""
"","","","Chrome","93.0.4577.107","","","","","","","html-button-response","17","374634","0.0-17.0","4828","1","2024-08-12 17:34:19","b0e02d76891de4098917a4775b26ae70","108.203.25.138","Mozilla/5.0 (X11; CrOS x86_64 14092.77.0) AppleWebKit/537.36 (KHTML, like Gecko) Chrome/93.0.4577.107 Safari/537.36","WebKit","ChromeOS","14092.77.0","https://wvbvqp7xwd.cognition.run/","en-US,en;q=0.9","6331","1","","","","","","","<img src=""RetrieveValue-Bar-Opacity-Blur.png"" style=""max-width:80%; margin:10px;""><br>In 2007, Waste Management operating value is around 5000 million dollars.","","","",""
"","","","Chrome","93.0.4577.107","","","","","","","image-keyboard-response","18","394638","0.0-18.0","4828","1","2024-08-12 17:34:19","b0e02d76891de4098917a4775b26ae70","108.203.25.138","Mozilla/5.0 (X11; CrOS x86_64 14092.77.0) AppleWebKit/537.36 (KHTML, like Gecko) Chrome/93.0.4577.107 Safari/537.36","WebKit","ChromeOS","14092.77.0","https://wvbvqp7xwd.cognition.run/","en-US,en;q=0.9","null","null","","","","","","","Trend-Bar-Line.png","","","",""
"","","","Chrome","93.0.4577.107","","","","","","","html-button-response","19","404663","0.0-19.0","4828","1","2024-08-12 17:34:19","b0e02d76891de4098917a4775b26ae70","108.203.25.138","Mozilla/5.0 (X11; CrOS x86_64 14092.77.0) AppleWebKit/537.36 (KHTML, like Gecko) Chrome/93.0.4577.107 Safari/537.36","WebKit","ChromeOS","14092.77.0","https://wvbvqp7xwd.cognition.run/","en-US,en;q=0.9","10021","1","","","","","","","<img src=""Trend-Bar-Line-Blur.png"" style=""max-width:80%; margin:10px;""><br>The employee number of Brunswick investment banking increased from 2014 to 2017","","","",""
"","","","Chrome","93.0.4577.107","","","","","","","html-button-response","20","417211","0.0-20.0","4828","1","2024-08-12 17:34:19","b0e02d76891de4098917a4775b26ae70","108.203.25.138","Mozilla/5.0 (X11; CrOS x86_64 14092.77.0) AppleWebKit/537.36 (KHTML, like Gecko) Chrome/93.0.4577.107 Safari/537.36","WebKit","ChromeOS","14092.77.0","https://wvbvqp7xwd.cognition.run/","en-US,en;q=0.9","12542","0","","","","","","","<img src=""Trend-Bar-Line-Blur.png"" style=""max-width:80%; margin:10px;""><br>The alchol consumption in UK has been droping since 2010","","","",""
"","","","Chrome","93.0.4577.107","","","","","","","image-keyboard-response","21","437221","0.0-21.0","4828","1","2024-08-12 17:34:19","b0e02d76891de4098917a4775b26ae70","108.203.25.138","Mozilla/5.0 (X11; CrOS x86_64 14092.77.0) AppleWebKit/537.36 (KHTML, like Gecko) Chrome/93.0.4577.107 Safari/537.36","WebKit","ChromeOS","14092.77.0","https://wvbvqp7xwd.cognition.run/","en-US,en;q=0.9","null","null","","","","","","","Compare-Bar-Opacity.png","","","",""
"","","","Chrome","93.0.4577.107","","","","","","","html-button-response","22","443881","0.0-22.0","4828","1","2024-08-12 17:34:19","b0e02d76891de4098917a4775b26ae70","108.203.25.138","Mozilla/5.0 (X11; CrOS x86_64 14092.77.0) AppleWebKit/537.36 (KHTML, like Gecko) Chrome/93.0.4577.107 Safari/537.36","WebKit","ChromeOS","14092.77.0","https://wvbvqp7xwd.cognition.run/","en-US,en;q=0.9","6650","0","","","","","","","<img src=""Compare-Bar-Opacity-Blur.png"" style=""max-width:80%; margin:10px;""><br>China is spending less energy than the U.S. in 2019.","","","",""
"","","","Chrome","93.0.4577.107","","","","","","","html-button-response","23","447303","0.0-23.0","4828","1","2024-08-12 17:34:19","b0e02d76891de4098917a4775b26ae70","108.203.25.138","Mozilla/5.0 (X11; CrOS x86_64 14092.77.0) AppleWebKit/537.36 (KHTML, like Gecko) Chrome/93.0.4577.107 Safari/537.36","WebKit","ChromeOS","14092.77.0","https://wvbvqp7xwd.cognition.run/","en-US,en;q=0.9","3415","1","","","","","","","<img src=""Compare-Bar-Opacity-Blur.png"" style=""max-width:80%; margin:10px;""><br>The operating profit of Roche group is higher in 2008 than in 2018.","","","",""
"","","","Chrome","93.0.4577.107","","","","","","","image-keyboard-response","24","467310","0.0-24.0","4828","1","2024-08-12 17:34:19","b0e02d76891de4098917a4775b26ae70","108.203.25.138","Mozilla/5.0 (X11; CrOS x86_64 14092.77.0) AppleWebKit/537.36 (KHTML, like Gecko) Chrome/93.0.4577.107 Safari/537.36","WebKit","ChromeOS","14092.77.0","https://wvbvqp7xwd.cognition.run/","en-US,en;q=0.9","null","null","","","","","","","Filter-Line-Shade.png","","","",""
"","","","Chrome","93.0.4577.107","","","","","","","html-button-response","25","477040","0.0-25.0","4828","1","2024-08-12 17:34:19","b0e02d76891de4098917a4775b26ae70","108.203.25.138","Mozilla/5.0 (X11; CrOS x86_64 14092.77.0) AppleWebKit/537.36 (KHTML, like Gecko) Chrome/93.0.4577.107 Safari/537.36","WebKit","ChromeOS","14092.77.0","https://wvbvqp7xwd.cognition.run/","en-US,en;q=0.9","9722","0","","","","","","","<img src=""Filter-Line-Shade-Blur.png"" style=""max-width:80%; margin:10px;""><br>The number of hospital in the U.S. has been lower than 3500 thousands since 2003","","","",""
"","","","Chrome","93.0.4577.107","","","","","","","html-button-response","26","479765","0.0-26.0","4828","1","2024-08-12 17:34:19","b0e02d76891de4098917a4775b26ae70","108.203.25.138","Mozilla/5.0 (X11; CrOS x86_64 14092.77.0) AppleWebKit/537.36 (KHTML, like Gecko) Chrome/93.0.4577.107 Safari/537.36","WebKit","ChromeOS","14092.77.0","https://wvbvqp7xwd.cognition.run/","en-US,en;q=0.9","2719","0","","","","","","","<img src=""Filter-Line-Shade-Blur.png"" style=""max-width:80%; margin:10px;""><br>Some penguins are heavier than 5000 g","","","",""
"","","","Chrome","93.0.4577.107","","","","","","","image-keyboard-response","27","499770","0.0-27.0","4828","1","2024-08-12 17:34:19","b0e02d76891de4098917a4775b26ae70","108.203.25.138","Mozilla/5.0 (X11; CrOS x86_64 14092.77.0) AppleWebKit/537.36 (KHTML, like Gecko) Chrome/93.0.4577.107 Safari/537.36","WebKit","ChromeOS","14092.77.0","https://wvbvqp7xwd.cognition.run/","en-US,en;q=0.9","null","null","","","","","","","Range-Line-Color.png","","","",""
"","","","Chrome","93.0.4577.107","","","","","","","html-button-response","28","510482","0.0-28.0","4828","1","2024-08-12 17:34:19","b0e02d76891de4098917a4775b26ae70","108.203.25.138","Mozilla/5.0 (X11; CrOS x86_64 14092.77.0) AppleWebKit/537.36 (KHTML, like Gecko) Chrome/93.0.4577.107 Safari/537.36","WebKit","ChromeOS","14092.77.0","https://wvbvqp7xwd.cognition.run/","en-US,en;q=0.9","10707","0","","","","","","","<img src=""Range-Line-Color-Blur.png"" style=""max-width:80%; margin:10px;""><br>Since 2014, the unit sales are between 2 and 3 million.","","","",""
"","","","Chrome","93.0.4577.107","","","","","","","html-button-response","29","525066","0.0-29.0","4828","1","2024-08-12 17:34:19","b0e02d76891de4098917a4775b26ae70","108.203.25.138","Mozilla/5.0 (X11; CrOS x86_64 14092.77.0) AppleWebKit/537.36 (KHTML, like Gecko) Chrome/93.0.4577.107 Safari/537.36","WebKit","ChromeOS","14092.77.0","https://wvbvqp7xwd.cognition.run/","en-US,en;q=0.9","14576","1","","","","","","","<img src=""Range-Line-Color-Blur.png"" style=""max-width:80%; margin:10px;""><br>Most countries have less than 50000 income","","","",""
"","","","Chrome","93.0.4577.107","","","","","","","image-keyboard-response","30","545073","0.0-30.0","4828","1","2024-08-12 17:34:19","b0e02d76891de4098917a4775b26ae70","108.203.25.138","Mozilla/5.0 (X11; CrOS x86_64 14092.77.0) AppleWebKit/537.36 (KHTML, like Gecko) Chrome/93.0.4577.107 Safari/537.36","WebKit","ChromeOS","14092.77.0","https://wvbvqp7xwd.cognition.run/","en-US,en;q=0.9","null","null","","","","","","","RetrieveValue-Line-Opacity.png","","","",""
"","","","Chrome","93.0.4577.107","","","","","","","html-button-response","31","560271","0.0-31.0","4828","1","2024-08-12 17:34:19","b0e02d76891de4098917a4775b26ae70","108.203.25.138","Mozilla/5.0 (X11; CrOS x86_64 14092.77.0) AppleWebKit/537.36 (KHTML, like Gecko) Chrome/93.0.4577.107 Safari/537.36","WebKit","ChromeOS","14092.77.0","https://wvbvqp7xwd.cognition.run/","en-US,en;q=0.9","15190","1","","","","","","","<img src=""RetrieveValue-Line-Opacity-Blur.png"" style=""max-width:80%; margin:10px;""><br>In 2007, Waste Management operating value is around 5000 million dollars.","","","",""
"","","","Chrome","93.0.4577.107","","","","","","","html-button-response","32","562420","0.0-32.0","4828","1","2024-08-12 17:34:19","b0e02d76891de4098917a4775b26ae70","108.203.25.138","Mozilla/5.0 (X11; CrOS x86_64 14092.77.0) AppleWebKit/537.36 (KHTML, like Gecko) Chrome/93.0.4577.107 Safari/537.36","WebKit","ChromeOS","14092.77.0","https://wvbvqp7xwd.cognition.run/","en-US,en;q=0.9","2141","0","","","","","","","<img src=""RetrieveValue-Line-Opacity-Blur.png"" style=""max-width:80%; margin:10px;""><br>Car A has about 160 horsepower and runs 15 miles per gallon","","","",""
"","","","Chrome","93.0.4577.107","","","","","","","image-keyboard-response","33","582427","0.0-33.0","4828","1","2024-08-12 17:34:19","b0e02d76891de4098917a4775b26ae70","108.203.25.138","Mozilla/5.0 (X11; CrOS x86_64 14092.77.0) AppleWebKit/537.36 (KHTML, like Gecko) Chrome/93.0.4577.107 Safari/537.36","WebKit","ChromeOS","14092.77.0","https://wvbvqp7xwd.cognition.run/","en-US,en;q=0.9","null","null","","","","","","","Trend-Line-Line.png","","","",""
"","","","Chrome","93.0.4577.107","","","","","","","html-button-response","34","595887","0.0-34.0","4828","1","2024-08-12 17:34:19","b0e02d76891de4098917a4775b26ae70","108.203.25.138","Mozilla/5.0 (X11; CrOS x86_64 14092.77.0) AppleWebKit/537.36 (KHTML, like Gecko) Chrome/93.0.4577.107 Safari/537.36","WebKit","ChromeOS","14092.77.0","https://wvbvqp7xwd.cognition.run/","en-US,en;q=0.9","13455","0","","","","","","","<img src=""Trend-Line-Line-Blur.png"" style=""max-width:80%; margin:10px;""><br>The alchol consumption in UK has been droping since 2010","","","",""
"","","","Chrome","93.0.4577.107","","","","","","","html-button-response","35","603367","0.0-35.0","4828","1","2024-08-12 17:34:19","b0e02d76891de4098917a4775b26ae70","108.203.25.138","Mozilla/5.0 (X11; CrOS x86_64 14092.77.0) AppleWebKit/537.36 (KHTML, like Gecko) Chrome/93.0.4577.107 Safari/537.36","WebKit","ChromeOS","14092.77.0","https://wvbvqp7xwd.cognition.run/","en-US,en;q=0.9","7474","0","","","","","","","<img src=""Trend-Line-Line-Blur.png"" style=""max-width:80%; margin:10px;""><br>The rotten tomatoes rating is not related to IMDB rating.","","","",""
"","","","Chrome","93.0.4577.107","","","","","","","image-keyboard-response","36","623375","0.0-36.0","4828","1","2024-08-12 17:34:19","b0e02d76891de4098917a4775b26ae70","108.203.25.138","Mozilla/5.0 (X11; CrOS x86_64 14092.77.0) AppleWebKit/537.36 (KHTML, like Gecko) Chrome/93.0.4577.107 Safari/537.36","WebKit","ChromeOS","14092.77.0","https://wvbvqp7xwd.cognition.run/","en-US,en;q=0.9","null","null","","","","","","","Compare-Line-Color.png","","","",""
"","","","Chrome","93.0.4577.107","","","","","","","html-button-response","37","647725","0.0-37.0","4828","1","2024-08-12 17:34:19","b0e02d76891de4098917a4775b26ae70","108.203.25.138","Mozilla/5.0 (X11; CrOS x86_64 14092.77.0) AppleWebKit/537.36 (KHTML, like Gecko) Chrome/93.0.4577.107 Safari/537.36","WebKit","ChromeOS","14092.77.0","https://wvbvqp7xwd.cognition.run/","en-US,en;q=0.9","24343","0","","","","","","","<img src=""Compare-Line-Color-Blur.png"" style=""max-width:80%; margin:10px;""><br>The operating profit of Roche group is higher in 2008 than in 2018.","","","",""
"","","","Chrome","93.0.4577.107","","","","","","","html-button-response","38","651185","0.0-38.0","4828","1","2024-08-12 17:34:19","b0e02d76891de4098917a4775b26ae70","108.203.25.138","Mozilla/5.0 (X11; CrOS x86_64 14092.77.0) AppleWebKit/537.36 (KHTML, like Gecko) Chrome/93.0.4577.107 Safari/537.36","WebKit","ChromeOS","14092.77.0","https://wvbvqp7xwd.cognition.run/","en-US,en;q=0.9","3453","0","","","","","","","<img src=""Compare-Line-Color-Blur.png"" style=""max-width:80%; margin:10px;""><br>Penguin A has smaller mass and shorter beak than penguin B.","","","",""
"","","","Chrome","93.0.4577.107","","","","","","","image-keyboard-response","39","671193","0.0-39.0","4828","1","2024-08-12 17:34:19","b0e02d76891de4098917a4775b26ae70","108.203.25.138","Mozilla/5.0 (X11; CrOS x86_64 14092.77.0) AppleWebKit/537.36 (KHTML, like Gecko) Chrome/93.0.4577.107 Safari/537.36","WebKit","ChromeOS","14092.77.0","https://wvbvqp7xwd.cognition.run/","en-US,en;q=0.9","null","null","","","","","","","Filter-Scatter-Color.png","","","",""
"","","","Chrome","93.0.4577.107","","","","","","","html-button-response","40","674756","0.0-40.0","4828","1","2024-08-12 17:34:19","b0e02d76891de4098917a4775b26ae70","108.203.25.138","Mozilla/5.0 (X11; CrOS x86_64 14092.77.0) AppleWebKit/537.36 (KHTML, like Gecko) Chrome/93.0.4577.107 Safari/537.36","WebKit","ChromeOS","14092.77.0","https://wvbvqp7xwd.cognition.run/","en-US,en;q=0.9","3550","0","","","","","","","<img src=""Filter-Scatter-Color-Blur.png"" style=""max-width:80%; margin:10px;""><br>Some penguins are heavier than 1000 g.","","","",""
"","","","Chrome","93.0.4577.107","","","","","","","html-button-response","41","678298","0.0-41.0","4828","1","2024-08-12 17:34:19","b0e02d76891de4098917a4775b26ae70","108.203.25.138","Mozilla/5.0 (X11; CrOS x86_64 14092.77.0) AppleWebKit/537.36 (KHTML, like Gecko) Chrome/93.0.4577.107 Safari/537.36","WebKit","ChromeOS","14092.77.0","https://wvbvqp7xwd.cognition.run/","en-US,en;q=0.9","3534","0","","","","","","","<img src=""Filter-Scatter-Color-Blur.png"" style=""max-width:80%; margin:10px;""><br>The number of mobile customers in UK drops below 20 million from 2018 to 2019.","","","",""
"","","","Chrome","93.0.4577.107","","","","","","","image-keyboard-response","42","698307","0.0-42.0","4828","1","2024-08-12 17:34:19","b0e02d76891de4098917a4775b26ae70","108.203.25.138","Mozilla/5.0 (X11; CrOS x86_64 14092.77.0) AppleWebKit/537.36 (KHTML, like Gecko) Chrome/93.0.4577.107 Safari/537.36","WebKit","ChromeOS","14092.77.0","https://wvbvqp7xwd.cognition.run/","en-US,en;q=0.9","null","null","","","","","","","Range-Scatter-Shade.png","","","",""
"","","","Chrome","93.0.4577.107","","","","","","","html-button-response","43","702563","0.0-43.0","4828","1","2024-08-12 17:34:19","b0e02d76891de4098917a4775b26ae70","108.203.25.138","Mozilla/5.0 (X11; CrOS x86_64 14092.77.0) AppleWebKit/537.36 (KHTML, like Gecko) Chrome/93.0.4577.107 Safari/537.36","WebKit","ChromeOS","14092.77.0","https://wvbvqp7xwd.cognition.run/","en-US,en;q=0.9","4247","0","","","","","","","<img src=""Range-Scatter-Shade-Blur.png"" style=""max-width:80%; margin:10px;""><br>Most countries have less than 50000 income","","","",""
"","","","Chrome","93.0.4577.107","","","","","","","html-button-response","44","706258","0.0-44.0","4828","1","2024-08-12 17:34:19","b0e02d76891de4098917a4775b26ae70","108.203.25.138","Mozilla/5.0 (X11; CrOS x86_64 14092.77.0) AppleWebKit/537.36 (KHTML, like Gecko) Chrome/93.0.4577.107 Safari/537.36","WebKit","ChromeOS","14092.77.0","https://wvbvqp7xwd.cognition.run/","en-US,en;q=0.9","3688","0","","","","","","","<img src=""Range-Scatter-Shade-Blur.png"" style=""max-width:80%; margin:10px;""><br>People from most Asian countries spent 50 to 70 hours on smartphones.","","","",""
"","","","Chrome","93.0.4577.107","","","","","","","image-keyboard-response","45","726268","0.0-45.0","4828","1","2024-08-12 17:34:19","b0e02d76891de4098917a4775b26ae70","108.203.25.138","Mozilla/5.0 (X11; CrOS x86_64 14092.77.0) AppleWebKit/537.36 (KHTML, like Gecko) Chrome/93.0.4577.107 Safari/537.36","WebKit","ChromeOS","14092.77.0","https://wvbvqp7xwd.cognition.run/","en-US,en;q=0.9","null","null","","","","","","","RetrieveValue-Scatter-Mark.png","","","",""
"","","","Chrome","93.0.4577.107","","","","","","","html-button-response","46","731238","0.0-46.0","4828","1","2024-08-12 17:34:19","b0e02d76891de4098917a4775b26ae70","108.203.25.138","Mozilla/5.0 (X11; CrOS x86_64 14092.77.0) AppleWebKit/537.36 (KHTML, like Gecko) Chrome/93.0.4577.107 Safari/537.36","WebKit","ChromeOS","14092.77.0","https://wvbvqp7xwd.cognition.run/","en-US,en;q=0.9","4960","1","","","","","","","<img src=""RetrieveValue-Scatter-Mark-Blur.png"" style=""max-width:80%; margin:10px;""><br>Car A has about 300 horsepower and runs 30 miles per gallon.","","","",""
"","","","Chrome","93.0.4577.107","","","","","","","html-button-response","47","735412","0.0-47.0","4828","1","2024-08-12 17:34:19","b0e02d76891de4098917a4775b26ae70","108.203.25.138","Mozilla/5.0 (X11; CrOS x86_64 14092.77.0) AppleWebKit/537.36 (KHTML, like Gecko) Chrome/93.0.4577.107 Safari/537.36","WebKit","ChromeOS","14092.77.0","https://wvbvqp7xwd.cognition.run/","en-US,en;q=0.9","4165","1","","","","","","","<img src=""RetrieveValue-Scatter-Mark-Blur.png"" style=""max-width:80%; margin:10px;""><br>In 2016, the national debt of Ireland reach the lowest.","","","",""
"","","","Chrome","93.0.4577.107","","","","","","","image-keyboard-response","48","755422","0.0-48.0","4828","1","2024-08-12 17:34:19","b0e02d76891de4098917a4775b26ae70","108.203.25.138","Mozilla/5.0 (X11; CrOS x86_64 14092.77.0) AppleWebKit/537.36 (KHTML, like Gecko) Chrome/93.0.4577.107 Safari/537.36","WebKit","ChromeOS","14092.77.0","https://wvbvqp7xwd.cognition.run/","en-US,en;q=0.9","null","null","","","","","","","Trend-Scatter-Shade.png","","","",""
"","","","Chrome","93.0.4577.107","","","","","","","html-button-response","49","765882","0.0-49.0","4828","1","2024-08-12 17:34:19","b0e02d76891de4098917a4775b26ae70","108.203.25.138","Mozilla/5.0 (X11; CrOS x86_64 14092.77.0) AppleWebKit/537.36 (KHTML, like Gecko) Chrome/93.0.4577.107 Safari/537.36","WebKit","ChromeOS","14092.77.0","https://wvbvqp7xwd.cognition.run/","en-US,en;q=0.9","10443","0","","","","","","","<img src=""Trend-Scatter-Shade-Blur.png"" style=""max-width:80%; margin:10px;""><br>The rotten tomatoes rating is related to IMDB rating","","","",""
"","","","Chrome","93.0.4577.107","","","","","","","html-button-response","50","770226","0.0-50.0","4828","1","2024-08-12 17:34:19","b0e02d76891de4098917a4775b26ae70","108.203.25.138","Mozilla/5.0 (X11; CrOS x86_64 14092.77.0) AppleWebKit/537.36 (KHTML, like Gecko) Chrome/93.0.4577.107 Safari/537.36","WebKit","ChromeOS","14092.77.0","https://wvbvqp7xwd.cognition.run/","en-US,en;q=0.9","4335","1","","","","","","","<img src=""Trend-Scatter-Shade-Blur.png"" style=""max-width:80%; margin:10px;""><br>The employee number of Brunswick investment banking increased from 2014 to 2017","","","",""
"","","","Chrome","93.0.4577.107","","","","","","","image-keyboard-response","51","790234","0.0-51.0","4828","1","2024-08-12 17:34:19","b0e02d76891de4098917a4775b26ae70","108.203.25.138","Mozilla/5.0 (X11; CrOS x86_64 14092.77.0) AppleWebKit/537.36 (KHTML, like Gecko) Chrome/93.0.4577.107 Safari/537.36","WebKit","ChromeOS","14092.77.0","https://wvbvqp7xwd.cognition.run/","en-US,en;q=0.9","null","null","","","","","","","Compare-Scatter-Text.png","","","",""
"","","","Chrome","93.0.4577.107","","","","","","","html-button-response","52","793817","0.0-52.0","4828","1","2024-08-12 17:34:19","b0e02d76891de4098917a4775b26ae70","108.203.25.138","Mozilla/5.0 (X11; CrOS x86_64 14092.77.0) AppleWebKit/537.36 (KHTML, like Gecko) Chrome/93.0.4577.107 Safari/537.36","WebKit","ChromeOS","14092.77.0","https://wvbvqp7xwd.cognition.run/","en-US,en;q=0.9","3575","0","","","","","","","<img src=""Compare-Scatter-Text-Blur.png"" style=""max-width:80%; margin:10px;""><br>Penguin A has smaller mass and shorter beak than penguin B.","","","",""
"","","","Chrome","93.0.4577.107","","","","","","","html-button-response","53","797878","0.0-53.0","4828","1","2024-08-12 17:34:19","b0e02d76891de4098917a4775b26ae70","108.203.25.138","Mozilla/5.0 (X11; CrOS x86_64 14092.77.0) AppleWebKit/537.36 (KHTML, like Gecko) Chrome/93.0.4577.107 Safari/537.36","WebKit","ChromeOS","14092.77.0","https://wvbvqp7xwd.cognition.run/","en-US,en;q=0.9","4049","0","","","","","","","<img src=""Compare-Scatter-Text-Blur.png"" style=""max-width:80%; margin:10px;""><br>China is spending less energy than the U.S. in 2019.","","","",""
"","","","Chrome","93.0.4577.107","","","","","","","survey-multi-choice","54","801692","0.0-54.0","4828","1","2024-08-12 17:34:19","b0e02d76891de4098917a4775b26ae70","108.203.25.138","Mozilla/5.0 (X11; CrOS x86_64 14092.77.0) AppleWebKit/537.36 (KHTML, like Gecko) Chrome/93.0.4577.107 Safari/537.36","WebKit","ChromeOS","14092.77.0","https://wvbvqp7xwd.cognition.run/","en-US,en;q=0.9","3803","{""Q0"":""Male""}","","","","","","","","[0]","","",""
"","","","Chrome","93.0.4577.107","","","","","","","free-sort","55","839578","0.0-55.0","4828","1","2024-08-12 17:34:19","b0e02d76891de4098917a4775b26ae70","108.203.25.138","Mozilla/5.0 (X11; CrOS x86_64 14092.77.0) AppleWebKit/537.36 (KHTML, like Gecko) Chrome/93.0.4577.107 Safari/537.36","WebKit","ChromeOS","14092.77.0","https://wvbvqp7xwd.cognition.run/","en-US,en;q=0.9","37872","","","","","","","","","","[{""src"":""Sort-Filter-Bar-Bound.png"",""x"":636,""y"":40},{""src"":""Sort-Filter-Bar-Color.png"",""x"":454,""y"":21},{""src"":""Sort-Filter-Bar-Line.png"",""x"":367,""y"":36},{""src"":""Sort-Filter-Bar-Opacity.png"",""x"":455,""y"":22},{""src"":""Sort-Filter-Bar-Shade.png"",""x"":849,""y"":12}]","[{""src"":""Sort-Filter-Bar-Shade.png"",""x"":1086,""y"":116},{""src"":""Sort-Filter-Bar-Bound.png"",""x"":-73,""y"":116},{""src"":""Sort-Filter-Bar-Opacity.png"",""x"":773,""y"":116},{""src"":""Sort-Filter-Bar-Line.png"",""x"":563,""y"":116},{""src"":""Sort-Filter-Bar-Bound.png"",""x"":323,""y"":116},{""src"":""Sort-Filter-Bar-Color.png"",""x"":474,""y"":116},{""src"":""Sort-Filter-Bar-Opacity.png"",""x"":797,""y"":59},{""src"":""Sort-Filter-Bar-Shade.png"",""x"":1085,""y"":116},{""src"":""Sort-Filter-Bar-Shade.png"",""x"":1092,""y"":111},{""src"":""Sort-Filter-Bar-Shade.png"",""x"":1088,""y"":38},{""src"":""Sort-Filter-Bar-Line.png"",""x"":566,""y"":47},{""src"":""Sort-Filter-Bar-Color.png"",""x"":410,""y"":33},{""src"":""Sort-Filter-Bar-Bound.png"",""x"":311,""y"":72}]","[{""src"":""Sort-Filter-Bar-Bound.png"",""x"":310,""y"":72},{""src"":""Sort-Filter-Bar-Color.png"",""x"":409,""y"":33},{""src"":""Sort-Filter-Bar-Line.png"",""x"":564,""y"":46},{""src"":""Sort-Filter-Bar-Opacity.png"",""x"":795,""y"":58},{""src"":""Sort-Filter-Bar-Shade.png"",""x"":1086,""y"":37}]"
"","","","Chrome","93.0.4577.107","","","","","","","free-sort","56","869919","0.0-56.0","4828","1","2024-08-12 17:34:19","b0e02d76891de4098917a4775b26ae70","108.203.25.138","Mozilla/5.0 (X11; CrOS x86_64 14092.77.0) AppleWebKit/537.36 (KHTML, like Gecko) Chrome/93.0.4577.107 Safari/537.36","WebKit","ChromeOS","14092.77.0","https://wvbvqp7xwd.cognition.run/","en-US,en;q=0.9","30333","","","","","","","","","","[{""src"":""Sort-RetrieveValue-Line-Color.png"",""x"":1129,""y"":7},{""src"":""Sort-RetrieveValue-Line-Line.png"",""x"":178,""y"":36},{""src"":""Sort-RetrieveValue-Line-Mark.png"",""x"":651,""y"":31},{""src"":""Sort-RetrieveValue-Line-Opacity.png"",""x"":999,""y"":16},{""src"":""Sort-RetrieveValue-Line-Text.png"",""x"":1106,""y"":37}]","[{""src"":""Sort-RetrieveValue-Line-Text.png"",""x"":755,""y"":21},{""src"":""Sort-RetrieveValue-Line-Opacity.png"",""x"":447,""y"":84},{""src"":""Sort-RetrieveValue-Line-Line.png"",""x"":902,""y"":48},{""src"":""Sort-RetrieveValue-Line-Text.png"",""x"":495,""y"":116},{""src"":""Sort-RetrieveValue-Line-Text.png"",""x"":483,""y"":33},{""src"":""Sort-RetrieveValue-Line-Color.png"",""x"":1005,""y"":116},{""src"":""Sort-RetrieveValue-Line-Color.png"",""x"":1029,""y"":83}]","[{""src"":""Sort-RetrieveValue-Line-Color.png"",""x"":1029,""y"":81},{""src"":""Sort-RetrieveValue-Line-Line.png"",""x"":901,""y"":48},{""src"":""Sort-RetrieveValue-Line-Mark.png"",""x"":651,""y"":31},{""src"":""Sort-RetrieveValue-Line-Opacity.png"",""x"":447,""y"":84},{""src"":""Sort-RetrieveValue-Line-Text.png"",""x"":482,""y"":33}]"
"","","","Chrome","93.0.4577.107","","","","","","","free-sort","57","884797","0.0-57.0","4828","1","2024-08-12 17:34:19","b0e02d76891de4098917a4775b26ae70","108.203.25.138","Mozilla/5.0 (X11; CrOS x86_64 14092.77.0) AppleWebKit/537.36 (KHTML, like Gecko) Chrome/93.0.4577.107 Safari/537.36","WebKit","ChromeOS","14092.77.0","https://wvbvqp7xwd.cognition.run/","en-US,en;q=0.9","14870","","","","","","","","","","[{""src"":""Sort-Compare-Scatter-Color.png"",""x"":834,""y"":11},{""src"":""Sort-Compare-Scatter-Mark.png"",""x"":56,""y"":23},{""src"":""Sort-Compare-Scatter-Opacity.png"",""x"":1172,""y"":34},{""src"":""Sort-Compare-Scatter-Text.png"",""x"":448,""y"":14}]","[{""src"":""Sort-Compare-Scatter-Mark.png"",""x"":713,""y"":33},{""src"":""Sort-Compare-Scatter-Text.png"",""x"":212,""y"":71},{""src"":""Sort-Compare-Scatter-Opacity.png"",""x"":531,""y"":48},{""src"":""Sort-Compare-Scatter-Color.png"",""x"":1115,""y"":26}]","[{""src"":""Sort-Compare-Scatter-Color.png"",""x"":1114,""y"":25},{""src"":""Sort-Compare-Scatter-Mark.png"",""x"":712,""y"":32},{""src"":""Sort-Compare-Scatter-Opacity.png"",""x"":531,""y"":48},{""src"":""Sort-Compare-Scatter-Text.png"",""x"":210,""y"":70}]"
"","","","Chrome","93.0.4577.107","","","","","","","html-button-response","58","889874","0.0-58.0","4828","1","2024-08-12 17:34:19","b0e02d76891de4098917a4775b26ae70","108.203.25.138","Mozilla/5.0 (X11; CrOS x86_64 14092.77.0) AppleWebKit/537.36 (KHTML, like Gecko) Chrome/93.0.4577.107 Safari/537.36","WebKit","ChromeOS","14092.77.0","https://wvbvqp7xwd.cognition.run/","en-US,en;q=0.9","5067","0","","","","","","","<p> Thanks for your participation! The prolific code is <b>CVE7UWMV</b></p> Please copy and paste the code before you exit.","","","",""
