"width","height","webaudio","browser","browser_version","mobile","os","fullscreen","vsync_rate","webcam","microphone","trial_type","trial_index","time_elapsed","internal_node_id","run_id","condition","recorded_at","source_code_version","ip","user_agent","device","platform","platform_version","referer","accept_language","rt","response","success","item_width_mm","item_height_mm","item_width_px","px2mm","scale_factor","stimulus","question_order","init_locations","moves","final_locations"
"1920","1080","true","Firefox","130.0","false","Linux","true","61.73","true","true","browser-check","0","982","0.0-0.0","5048","1","2024-08-12 18:27:15","b0e02d76891de4098917a4775b26ae70","24.96.78.114","Mozilla/5.0 (X11; Linux x86_64; rv:130.0) Gecko/20100101 Firefox/130.0","","Linux","","https://wvbvqp7xwd.cognition.run/","en-US,en;q=0.7,en-GB;q=0.3","","","","","","","","","","","","",""
"","","","Firefox","130.0","","","","","","","survey-text","1","7559","0.0-1.0","5048","1","2024-08-12 18:27:15","b0e02d76891de4098917a4775b26ae70","24.96.78.114","Mozilla/5.0 (X11; Linux x86_64; rv:130.0) Gecko/20100101 Firefox/130.0","","Linux","","https://wvbvqp7xwd.cognition.run/","en-US,en;q=0.7,en-GB;q=0.3","6572","{""Q0"":""5d453e8723a5bb0001492546""}","","","","","","","","","","",""
"","","","Firefox","130.0","","","","","","","fullscreen","2","10788","0.0-2.0","5048","1","2024-08-12 18:27:15","b0e02d76891de4098917a4775b26ae70","24.96.78.114","Mozilla/5.0 (X11; Linux x86_64; rv:130.0) Gecko/20100101 Firefox/130.0","","Linux","","https://wvbvqp7xwd.cognition.run/","en-US,en;q=0.7,en-GB;q=0.3","2228","","true","","","","","","","","","",""
"","","","Firefox","130.0","","","","","","","virtual-chinrest","3","172706","0.0-3.0","5048","1","2024-08-12 18:27:15","b0e02d76891de4098917a4775b26ae70","24.96.78.114","Mozilla/5.0 (X11; Linux x86_64; rv:130.0) Gecko/20100101 Firefox/130.0","","Linux","","https://wvbvqp7xwd.cognition.run/","en-US,en;q=0.7,en-GB;q=0.3","161915","","","85.6","53.98","427.8523489932886","5","1.192","","","","",""
"","","","Firefox","130.0","","","","","","","html-button-response","4","245326","0.0-4.0","5048","1","2024-08-12 18:27:15","b0e02d76891de4098917a4775b26ae70","24.96.78.114","Mozilla/5.0 (X11; Linux x86_64; rv:130.0) Gecko/20100101 Firefox/130.0","","Linux","","https://wvbvqp7xwd.cognition.run/","en-US,en;q=0.7,en-GB;q=0.3","72617","0","","","","","","","
    <p>If the measurements were done correctly, the square below should be 10 cm x 10 cm.</p>
    <div style=""background-color: black; width: 500px; height: 500px; margin: 20px auto;""></div>
    ","","","",""
"","","","Firefox","130.0","","","","","","","survey-multi-choice","5","248935","0.0-5.0","5048","1","2024-08-12 18:27:15","b0e02d76891de4098917a4775b26ae70","24.96.78.114","Mozilla/5.0 (X11; Linux x86_64; rv:130.0) Gecko/20100101 Firefox/130.0","","Linux","","https://wvbvqp7xwd.cognition.run/","en-US,en;q=0.7,en-GB;q=0.3","3606","{""Q0"":""durian""}","","","","","","","","[0]","","",""
"","","","Firefox","130.0","","","","","","","html-button-response","6","250073","0.0-6.0","5048","1","2024-08-12 18:27:15","b0e02d76891de4098917a4775b26ae70","24.96.78.114","Mozilla/5.0 (X11; Linux x86_64; rv:130.0) Gecko/20100101 Firefox/130.0","","Linux","","https://wvbvqp7xwd.cognition.run/","en-US,en;q=0.7,en-GB;q=0.3","1136","0","","","","","","","<p>Great! You passed the attention check. Now let's begin!</p>","","","",""
"","","","Firefox","130.0","","","","","","","html-button-response","7","259539","0.0-7.0","5048","1","2024-08-12 18:27:15","b0e02d76891de4098917a4775b26ae70","24.96.78.114","Mozilla/5.0 (X11; Linux x86_64; rv:130.0) Gecko/20100101 Firefox/130.0","","Linux","","https://wvbvqp7xwd.cognition.run/","en-US,en;q=0.7,en-GB;q=0.3","9464","0","","","","","","","<p>In this experiment, you will see 15 dashboards, each for 20 seconds.</p> <p> You need to <b>remember the data fact</b> shown on the dashboard, and try to recall whether it is <b>True or False</b> later.</p>","","","",""
"","","","Firefox","130.0","","","","","","","html-button-response","8","267044","0.0-8.0","5048","1","2024-08-12 18:27:15","b0e02d76891de4098917a4775b26ae70","24.96.78.114","Mozilla/5.0 (X11; Linux x86_64; rv:130.0) Gecko/20100101 Firefox/130.0","","Linux","","https://wvbvqp7xwd.cognition.run/","en-US,en;q=0.7,en-GB;q=0.3","7503","0","","","","","","","<p>Your response will be collected and evaluated. If any irregularities are found (such as selecting the same answer for all questions or displaying very low overall accuracy), you may not receive payment.</p>","","","",""
"","","","Firefox","130.0","","","","","","","image-keyboard-response","9","287143","0.0-9.0","5048","1","2024-08-12 18:27:15","b0e02d76891de4098917a4775b26ae70","24.96.78.114","Mozilla/5.0 (X11; Linux x86_64; rv:130.0) Gecko/20100101 Firefox/130.0","","Linux","","https://wvbvqp7xwd.cognition.run/","en-US,en;q=0.7,en-GB;q=0.3","null","null","","","","","","","Filter-Bar-Opacity.png","","","",""
"","","","Firefox","130.0","","","","","","","html-button-response","10","300832","0.0-10.0","5048","1","2024-08-12 18:27:15","b0e02d76891de4098917a4775b26ae70","24.96.78.114","Mozilla/5.0 (X11; Linux x86_64; rv:130.0) Gecko/20100101 Firefox/130.0","","Linux","","https://wvbvqp7xwd.cognition.run/","en-US,en;q=0.7,en-GB;q=0.3","13687","0","","","","","","","<img src=""Filter-Bar-Opacity-Blur.png"" style=""max-width:80%; margin:10px;""><br>The number of mobile customers in UK drops below 30 million from 2018 to 2019.","","","",""
"","","","Firefox","130.0","","","","","","","html-button-response","11","321643","0.0-11.0","5048","1","2024-08-12 18:27:15","b0e02d76891de4098917a4775b26ae70","24.96.78.114","Mozilla/5.0 (X11; Linux x86_64; rv:130.0) Gecko/20100101 Firefox/130.0","","Linux","","https://wvbvqp7xwd.cognition.run/","en-US,en;q=0.7,en-GB;q=0.3","20804","1","","","","","","","<img src=""Filter-Bar-Opacity-Blur.png"" style=""max-width:80%; margin:10px;""><br>The number of hospitals in the U.S. has been higher than 3500 thousands since 2014.","","","",""
"","","","Firefox","130.0","","","","","","","image-keyboard-response","12","341646","0.0-12.0","5048","1","2024-08-12 18:27:15","b0e02d76891de4098917a4775b26ae70","24.96.78.114","Mozilla/5.0 (X11; Linux x86_64; rv:130.0) Gecko/20100101 Firefox/130.0","","Linux","","https://wvbvqp7xwd.cognition.run/","en-US,en;q=0.7,en-GB;q=0.3","null","null","","","","","","","Range-Bar-Color.png","","","",""
"","","","Firefox","130.0","","","","","","","html-button-response","13","376396","0.0-13.0","5048","1","2024-08-12 18:27:15","b0e02d76891de4098917a4775b26ae70","24.96.78.114","Mozilla/5.0 (X11; Linux x86_64; rv:130.0) Gecko/20100101 Firefox/130.0","","Linux","","https://wvbvqp7xwd.cognition.run/","en-US,en;q=0.7,en-GB;q=0.3","34748","1","","","","","","","<img src=""Range-Bar-Color-Blur.png"" style=""max-width:80%; margin:10px;""><br>People from most Asian countries spent 80 to 100 hours on smartphones.","","","",""
"","","","Firefox","130.0","","","","","","","html-button-response","14","403897","0.0-14.0","5048","1","2024-08-12 18:27:15","b0e02d76891de4098917a4775b26ae70","24.96.78.114","Mozilla/5.0 (X11; Linux x86_64; rv:130.0) Gecko/20100101 Firefox/130.0","","Linux","","https://wvbvqp7xwd.cognition.run/","en-US,en;q=0.7,en-GB;q=0.3","27500","1","","","","","","","<img src=""Range-Bar-Color-Blur.png"" style=""max-width:80%; margin:10px;""><br>Since 2014, the unit sales is between 0.5 and 1.4 milion","","","",""
"","","","Firefox","130.0","","","","","","","image-keyboard-response","15","423989","0.0-15.0","5048","1","2024-08-12 18:27:15","b0e02d76891de4098917a4775b26ae70","24.96.78.114","Mozilla/5.0 (X11; Linux x86_64; rv:130.0) Gecko/20100101 Firefox/130.0","","Linux","","https://wvbvqp7xwd.cognition.run/","en-US,en;q=0.7,en-GB;q=0.3","null","null","","","","","","","RetrieveValue-Bar-Color.png","","","",""
"","","","Firefox","130.0","","","","","","","html-button-response","16","442582","0.0-16.0","5048","1","2024-08-12 18:27:15","b0e02d76891de4098917a4775b26ae70","24.96.78.114","Mozilla/5.0 (X11; Linux x86_64; rv:130.0) Gecko/20100101 Firefox/130.0","","Linux","","https://wvbvqp7xwd.cognition.run/","en-US,en;q=0.7,en-GB;q=0.3","18591","1","","","","","","","<img src=""RetrieveValue-Bar-Color-Blur.png"" style=""max-width:80%; margin:10px;""><br>In 2016, the national debt of Ireland reached the highest.","","","",""
"","","","Firefox","130.0","","","","","","","html-button-response","17","455330","0.0-17.0","5048","1","2024-08-12 18:27:15","b0e02d76891de4098917a4775b26ae70","24.96.78.114","Mozilla/5.0 (X11; Linux x86_64; rv:130.0) Gecko/20100101 Firefox/130.0","","Linux","","https://wvbvqp7xwd.cognition.run/","en-US,en;q=0.7,en-GB;q=0.3","12744","1","","","","","","","<img src=""RetrieveValue-Bar-Color-Blur.png"" style=""max-width:80%; margin:10px;""><br>In 2007, Waste Management operating value is around 13000 million dollars","","","",""
"","","","Firefox","130.0","","","","","","","image-keyboard-response","18","475332","0.0-18.0","5048","1","2024-08-12 18:27:15","b0e02d76891de4098917a4775b26ae70","24.96.78.114","Mozilla/5.0 (X11; Linux x86_64; rv:130.0) Gecko/20100101 Firefox/130.0","","Linux","","https://wvbvqp7xwd.cognition.run/","en-US,en;q=0.7,en-GB;q=0.3","null","null","","","","","","","Trend-Bar-Line.png","","","",""
"","","","Firefox","130.0","","","","","","","html-button-response","19","491323","0.0-19.0","5048","1","2024-08-12 18:27:15","b0e02d76891de4098917a4775b26ae70","24.96.78.114","Mozilla/5.0 (X11; Linux x86_64; rv:130.0) Gecko/20100101 Firefox/130.0","","Linux","","https://wvbvqp7xwd.cognition.run/","en-US,en;q=0.7,en-GB;q=0.3","15989","0","","","","","","","<img src=""Trend-Bar-Line-Blur.png"" style=""max-width:80%; margin:10px;""><br>The employee number of Brunswick investment banking increased from 2014 to 2017","","","",""
"","","","Firefox","130.0","","","","","","","html-button-response","20","497575","0.0-20.0","5048","1","2024-08-12 18:27:15","b0e02d76891de4098917a4775b26ae70","24.96.78.114","Mozilla/5.0 (X11; Linux x86_64; rv:130.0) Gecko/20100101 Firefox/130.0","","Linux","","https://wvbvqp7xwd.cognition.run/","en-US,en;q=0.7,en-GB;q=0.3","6249","1","","","","","","","<img src=""Trend-Bar-Line-Blur.png"" style=""max-width:80%; margin:10px;""><br>The alcohol consumption in UK has been increasing since 2010.","","","",""
"","","","Firefox","130.0","","","","","","","image-keyboard-response","21","517578","0.0-21.0","5048","1","2024-08-12 18:27:15","b0e02d76891de4098917a4775b26ae70","24.96.78.114","Mozilla/5.0 (X11; Linux x86_64; rv:130.0) Gecko/20100101 Firefox/130.0","","Linux","","https://wvbvqp7xwd.cognition.run/","en-US,en;q=0.7,en-GB;q=0.3","null","null","","","","","","","Compare-Bar-Text.png","","","",""
"","","","Firefox","130.0","","","","","","","html-button-response","22","525464","0.0-22.0","5048","1","2024-08-12 18:27:15","b0e02d76891de4098917a4775b26ae70","24.96.78.114","Mozilla/5.0 (X11; Linux x86_64; rv:130.0) Gecko/20100101 Firefox/130.0","","Linux","","https://wvbvqp7xwd.cognition.run/","en-US,en;q=0.7,en-GB;q=0.3","7885","0","","","","","","","<img src=""Compare-Bar-Text-Blur.png"" style=""max-width:80%; margin:10px;""><br>China is spending more energy than the U.S. in 2019","","","",""
"","","","Firefox","130.0","","","","","","","html-button-response","23","537448","0.0-23.0","5048","1","2024-08-12 18:27:15","b0e02d76891de4098917a4775b26ae70","24.96.78.114","Mozilla/5.0 (X11; Linux x86_64; rv:130.0) Gecko/20100101 Firefox/130.0","","Linux","","https://wvbvqp7xwd.cognition.run/","en-US,en;q=0.7,en-GB;q=0.3","11981","0","","","","","","","<img src=""Compare-Bar-Text-Blur.png"" style=""max-width:80%; margin:10px;""><br>The operating profit of Roche group is lower in 2008 than in 2018","","","",""
"","","","Firefox","130.0","","","","","","","image-keyboard-response","24","557671","0.0-24.0","5048","1","2024-08-12 18:27:15","b0e02d76891de4098917a4775b26ae70","24.96.78.114","Mozilla/5.0 (X11; Linux x86_64; rv:130.0) Gecko/20100101 Firefox/130.0","","Linux","","https://wvbvqp7xwd.cognition.run/","en-US,en;q=0.7,en-GB;q=0.3","null","null","","","","","","","Filter-Line-Line.png","","","",""
"","","","Firefox","130.0","","","","","","","html-button-response","25","591901","0.0-25.0","5048","1","2024-08-12 18:27:15","b0e02d76891de4098917a4775b26ae70","24.96.78.114","Mozilla/5.0 (X11; Linux x86_64; rv:130.0) Gecko/20100101 Firefox/130.0","","Linux","","https://wvbvqp7xwd.cognition.run/","en-US,en;q=0.7,en-GB;q=0.3","34227","0","","","","","","","<img src=""Filter-Line-Line-Blur.png"" style=""max-width:80%; margin:10px;""><br>The number of hospital in the U.S. has been lower than 3500 thousands since 2003","","","",""
"","","","Firefox","130.0","","","","","","","html-button-response","26","609498","0.0-26.0","5048","1","2024-08-12 18:27:15","b0e02d76891de4098917a4775b26ae70","24.96.78.114","Mozilla/5.0 (X11; Linux x86_64; rv:130.0) Gecko/20100101 Firefox/130.0","","Linux","","https://wvbvqp7xwd.cognition.run/","en-US,en;q=0.7,en-GB;q=0.3","17594","0","","","","","","","<img src=""Filter-Line-Line-Blur.png"" style=""max-width:80%; margin:10px;""><br>Some penguins are heavier than 5000 g","","","",""
"","","","Firefox","130.0","","","","","","","image-keyboard-response","27","629502","0.0-27.0","5048","1","2024-08-12 18:27:15","b0e02d76891de4098917a4775b26ae70","24.96.78.114","Mozilla/5.0 (X11; Linux x86_64; rv:130.0) Gecko/20100101 Firefox/130.0","","Linux","","https://wvbvqp7xwd.cognition.run/","en-US,en;q=0.7,en-GB;q=0.3","null","null","","","","","","","Range-Line-Color.png","","","",""
"","","","Firefox","130.0","","","","","","","html-button-response","28","661455","0.0-28.0","5048","1","2024-08-12 18:27:15","b0e02d76891de4098917a4775b26ae70","24.96.78.114","Mozilla/5.0 (X11; Linux x86_64; rv:130.0) Gecko/20100101 Firefox/130.0","","Linux","","https://wvbvqp7xwd.cognition.run/","en-US,en;q=0.7,en-GB;q=0.3","31949","0","","","","","","","<img src=""Range-Line-Color-Blur.png"" style=""max-width:80%; margin:10px;""><br>Since 2014, the unit sales is between 0.5 and 1.4 milion","","","",""
"","","","Firefox","130.0","","","","","","","html-button-response","29","709155","0.0-29.0","5048","1","2024-08-12 18:27:15","b0e02d76891de4098917a4775b26ae70","24.96.78.114","Mozilla/5.0 (X11; Linux x86_64; rv:130.0) Gecko/20100101 Firefox/130.0","","Linux","","https://wvbvqp7xwd.cognition.run/","en-US,en;q=0.7,en-GB;q=0.3","47696","0","","","","","","","<img src=""Range-Line-Color-Blur.png"" style=""max-width:80%; margin:10px;""><br>Most countries have less than 10000 income.","","","",""
"","","","Firefox","130.0","","","","","","","image-keyboard-response","30","729312","0.0-30.0","5048","1","2024-08-12 18:27:15","b0e02d76891de4098917a4775b26ae70","24.96.78.114","Mozilla/5.0 (X11; Linux x86_64; rv:130.0) Gecko/20100101 Firefox/130.0","","Linux","","https://wvbvqp7xwd.cognition.run/","en-US,en;q=0.7,en-GB;q=0.3","null","null","","","","","","","RetrieveValue-Line-Text.png","","","",""
"","","","Firefox","130.0","","","","","","","html-button-response","31","755806","0.0-31.0","5048","1","2024-08-12 18:27:15","b0e02d76891de4098917a4775b26ae70","24.96.78.114","Mozilla/5.0 (X11; Linux x86_64; rv:130.0) Gecko/20100101 Firefox/130.0","","Linux","","https://wvbvqp7xwd.cognition.run/","en-US,en;q=0.7,en-GB;q=0.3","26492","0","","","","","","","<img src=""RetrieveValue-Line-Text-Blur.png"" style=""max-width:80%; margin:10px;""><br>In 2007, Waste Management operating value is around 13000 million dollars","","","",""
"","","","Firefox","130.0","","","","","","","html-button-response","32","799745","0.0-32.0","5048","1","2024-08-12 18:27:15","b0e02d76891de4098917a4775b26ae70","24.96.78.114","Mozilla/5.0 (X11; Linux x86_64; rv:130.0) Gecko/20100101 Firefox/130.0","","Linux","","https://wvbvqp7xwd.cognition.run/","en-US,en;q=0.7,en-GB;q=0.3","43935","0","","","","","","","<img src=""RetrieveValue-Line-Text-Blur.png"" style=""max-width:80%; margin:10px;""><br>Car A has about 300 horsepower and runs 30 miles per gallon.","","","",""
"","","","Firefox","130.0","","","","","","","image-keyboard-response","33","819748","0.0-33.0","5048","1","2024-08-12 18:27:15","b0e02d76891de4098917a4775b26ae70","24.96.78.114","Mozilla/5.0 (X11; Linux x86_64; rv:130.0) Gecko/20100101 Firefox/130.0","","Linux","","https://wvbvqp7xwd.cognition.run/","en-US,en;q=0.7,en-GB;q=0.3","null","null","","","","","","","Trend-Line-Mark.png","","","",""
"","","","Firefox","130.0","","","","","","","html-button-response","34","825545","0.0-34.0","5048","1","2024-08-12 18:27:15","b0e02d76891de4098917a4775b26ae70","24.96.78.114","Mozilla/5.0 (X11; Linux x86_64; rv:130.0) Gecko/20100101 Firefox/130.0","","Linux","","https://wvbvqp7xwd.cognition.run/","en-US,en;q=0.7,en-GB;q=0.3","5796","1","","","","","","","<img src=""Trend-Line-Mark-Blur.png"" style=""max-width:80%; margin:10px;""><br>The alcohol consumption in UK has been increasing since 2010.","","","",""
"","","","Firefox","130.0","","","","","","","html-button-response","35","840087","0.0-35.0","5048","1","2024-08-12 18:27:15","b0e02d76891de4098917a4775b26ae70","24.96.78.114","Mozilla/5.0 (X11; Linux x86_64; rv:130.0) Gecko/20100101 Firefox/130.0","","Linux","","https://wvbvqp7xwd.cognition.run/","en-US,en;q=0.7,en-GB;q=0.3","14538","1","","","","","","","<img src=""Trend-Line-Mark-Blur.png"" style=""max-width:80%; margin:10px;""><br>The rotten tomatoes rating is not related to IMDB rating.","","","",""
"","","","Firefox","130.0","","","","","","","image-keyboard-response","36","860133","0.0-36.0","5048","1","2024-08-12 18:27:15","b0e02d76891de4098917a4775b26ae70","24.96.78.114","Mozilla/5.0 (X11; Linux x86_64; rv:130.0) Gecko/20100101 Firefox/130.0","","Linux","","https://wvbvqp7xwd.cognition.run/","en-US,en;q=0.7,en-GB;q=0.3","null","null","","","","","","","Comapre-Line-Mark.png","","","",""
"","","","Firefox","130.0","","","","","","","html-button-response","37","909578","0.0-37.0","5048","1","2024-08-12 18:27:15","b0e02d76891de4098917a4775b26ae70","24.96.78.114","Mozilla/5.0 (X11; Linux x86_64; rv:130.0) Gecko/20100101 Firefox/130.0","","Linux","","https://wvbvqp7xwd.cognition.run/","en-US,en;q=0.7,en-GB;q=0.3","49442","1","","","","","","","<img src=""Comapre-Line-Mark-Blur.png"" style=""max-width:80%; margin:10px;""><br>The operating profit of Roche group is higher in 2008 than in 2018.","","","",""
"","","","Firefox","130.0","","","","","","","html-button-response","38","922675","0.0-38.0","5048","1","2024-08-12 18:27:15","b0e02d76891de4098917a4775b26ae70","24.96.78.114","Mozilla/5.0 (X11; Linux x86_64; rv:130.0) Gecko/20100101 Firefox/130.0","","Linux","","https://wvbvqp7xwd.cognition.run/","en-US,en;q=0.7,en-GB;q=0.3","13094","0","","","","","","","<img src=""Comapre-Line-Mark-Blur.png"" style=""max-width:80%; margin:10px;""><br>Penguin A has smaller mass and shorter beak than penguin B.","","","",""
"","","","Firefox","130.0","","","","","","","image-keyboard-response","39","942689","0.0-39.0","5048","1","2024-08-12 18:27:15","b0e02d76891de4098917a4775b26ae70","24.96.78.114","Mozilla/5.0 (X11; Linux x86_64; rv:130.0) Gecko/20100101 Firefox/130.0","","Linux","","https://wvbvqp7xwd.cognition.run/","en-US,en;q=0.7,en-GB;q=0.3","null","null","","","","","","","Filter-Scatter-Bound.png","","","",""
"","","","Firefox","130.0","","","","","","","html-button-response","40","946290","0.0-40.0","5048","1","2024-08-12 18:27:15","b0e02d76891de4098917a4775b26ae70","24.96.78.114","Mozilla/5.0 (X11; Linux x86_64; rv:130.0) Gecko/20100101 Firefox/130.0","","Linux","","https://wvbvqp7xwd.cognition.run/","en-US,en;q=0.7,en-GB;q=0.3","3597","0","","","","","","","<img src=""Filter-Scatter-Bound-Blur.png"" style=""max-width:80%; margin:10px;""><br>Some penguins are heavier than 1000 g.","","","",""
"","","","Firefox","130.0","","","","","","","html-button-response","41","957198","0.0-41.0","5048","1","2024-08-12 18:27:15","b0e02d76891de4098917a4775b26ae70","24.96.78.114","Mozilla/5.0 (X11; Linux x86_64; rv:130.0) Gecko/20100101 Firefox/130.0","","Linux","","https://wvbvqp7xwd.cognition.run/","en-US,en;q=0.7,en-GB;q=0.3","10903","0","","","","","","","<img src=""Filter-Scatter-Bound-Blur.png"" style=""max-width:80%; margin:10px;""><br>The number of mobile customers in UK drops below 30 million from 2018 to 2019.","","","",""
"","","","Firefox","130.0","","","","","","","image-keyboard-response","42","977366","0.0-42.0","5048","1","2024-08-12 18:27:15","b0e02d76891de4098917a4775b26ae70","24.96.78.114","Mozilla/5.0 (X11; Linux x86_64; rv:130.0) Gecko/20100101 Firefox/130.0","","Linux","","https://wvbvqp7xwd.cognition.run/","en-US,en;q=0.7,en-GB;q=0.3","null","null","","","","","","","Range-Scatter-Line.png","","","",""
"","","","Firefox","130.0","","","","","","","html-button-response","43","982816","0.0-43.0","5048","1","2024-08-12 18:27:15","b0e02d76891de4098917a4775b26ae70","24.96.78.114","Mozilla/5.0 (X11; Linux x86_64; rv:130.0) Gecko/20100101 Firefox/130.0","","Linux","","https://wvbvqp7xwd.cognition.run/","en-US,en;q=0.7,en-GB;q=0.3","5445","0","","","","","","","<img src=""Range-Scatter-Line-Blur.png"" style=""max-width:80%; margin:10px;""><br>Most countries have less than 50000 income","","","",""
"","","","Firefox","130.0","","","","","","","html-button-response","44","987969","0.0-44.0","5048","1","2024-08-12 18:27:15","b0e02d76891de4098917a4775b26ae70","24.96.78.114","Mozilla/5.0 (X11; Linux x86_64; rv:130.0) Gecko/20100101 Firefox/130.0","","Linux","","https://wvbvqp7xwd.cognition.run/","en-US,en;q=0.7,en-GB;q=0.3","5151","1","","","","","","","<img src=""Range-Scatter-Line-Blur.png"" style=""max-width:80%; margin:10px;""><br>People from most Asian countries spent 80 to 100 hours on smartphones.","","","",""
"","","","Firefox","130.0","","","","","","","image-keyboard-response","45","1007972","0.0-45.0","5048","1","2024-08-12 18:27:15","b0e02d76891de4098917a4775b26ae70","24.96.78.114","Mozilla/5.0 (X11; Linux x86_64; rv:130.0) Gecko/20100101 Firefox/130.0","","Linux","","https://wvbvqp7xwd.cognition.run/","en-US,en;q=0.7,en-GB;q=0.3","null","null","","","","","","","RetrieveValue-Scatter-Color.png","","","",""
"","","","Firefox","130.0","","","","","","","html-button-response","46","1025740","0.0-46.0","5048","1","2024-08-12 18:27:15","b0e02d76891de4098917a4775b26ae70","24.96.78.114","Mozilla/5.0 (X11; Linux x86_64; rv:130.0) Gecko/20100101 Firefox/130.0","","Linux","","https://wvbvqp7xwd.cognition.run/","en-US,en;q=0.7,en-GB;q=0.3","17763","0","","","","","","","<img src=""RetrieveValue-Scatter-Color-Blur.png"" style=""max-width:80%; margin:10px;""><br>Car A has about 160 horsepower and runs 15 miles per gallon","","","",""
"","","","Firefox","130.0","","","","","","","html-button-response","47","1030377","0.0-47.0","5048","1","2024-08-12 18:27:15","b0e02d76891de4098917a4775b26ae70","24.96.78.114","Mozilla/5.0 (X11; Linux x86_64; rv:130.0) Gecko/20100101 Firefox/130.0","","Linux","","https://wvbvqp7xwd.cognition.run/","en-US,en;q=0.7,en-GB;q=0.3","4633","1","","","","","","","<img src=""RetrieveValue-Scatter-Color-Blur.png"" style=""max-width:80%; margin:10px;""><br>In 2016, the national debt of Ireland reached the highest.","","","",""
"","","","Firefox","130.0","","","","","","","image-keyboard-response","48","1050497","0.0-48.0","5048","1","2024-08-12 18:27:15","b0e02d76891de4098917a4775b26ae70","24.96.78.114","Mozilla/5.0 (X11; Linux x86_64; rv:130.0) Gecko/20100101 Firefox/130.0","","Linux","","https://wvbvqp7xwd.cognition.run/","en-US,en;q=0.7,en-GB;q=0.3","null","null","","","","","","","Trend-Scatter-Mark.png","","","",""
"","","","Firefox","130.0","","","","","","","html-button-response","49","1062343","0.0-49.0","5048","1","2024-08-12 18:27:15","b0e02d76891de4098917a4775b26ae70","24.96.78.114","Mozilla/5.0 (X11; Linux x86_64; rv:130.0) Gecko/20100101 Firefox/130.0","","Linux","","https://wvbvqp7xwd.cognition.run/","en-US,en;q=0.7,en-GB;q=0.3","11843","0","","","","","","","<img src=""Trend-Scatter-Mark-Blur.png"" style=""max-width:80%; margin:10px;""><br>The rotten tomatoes rating is related to IMDB rating","","","",""
"","","","Firefox","130.0","","","","","","","html-button-response","50","1070025","0.0-50.0","5048","1","2024-08-12 18:27:15","b0e02d76891de4098917a4775b26ae70","24.96.78.114","Mozilla/5.0 (X11; Linux x86_64; rv:130.0) Gecko/20100101 Firefox/130.0","","Linux","","https://wvbvqp7xwd.cognition.run/","en-US,en;q=0.7,en-GB;q=0.3","7679","0","","","","","","","<img src=""Trend-Scatter-Mark-Blur.png"" style=""max-width:80%; margin:10px;""><br>The employee number of Brunswick investment banking increased from 2014 to 2017","","","",""
"","","","Firefox","130.0","","","","","","","image-keyboard-response","51","1090034","0.0-51.0","5048","1","2024-08-12 18:27:15","b0e02d76891de4098917a4775b26ae70","24.96.78.114","Mozilla/5.0 (X11; Linux x86_64; rv:130.0) Gecko/20100101 Firefox/130.0","","Linux","","https://wvbvqp7xwd.cognition.run/","en-US,en;q=0.7,en-GB;q=0.3","null","null","","","","","","","Compare-Scatter-Color.png","","","",""
"","","","Firefox","130.0","","","","","","","html-button-response","52","1106850","0.0-52.0","5048","1","2024-08-12 18:27:15","b0e02d76891de4098917a4775b26ae70","24.96.78.114","Mozilla/5.0 (X11; Linux x86_64; rv:130.0) Gecko/20100101 Firefox/130.0","","Linux","","https://wvbvqp7xwd.cognition.run/","en-US,en;q=0.7,en-GB;q=0.3","16813","0","","","","","","","<img src=""Compare-Scatter-Color-Blur.png"" style=""max-width:80%; margin:10px;""><br>Penguin A has smaller mass and shorter beak than penguin B.","","","",""
"","","","Firefox","130.0","","","","","","","html-button-response","53","1111717","0.0-53.0","5048","1","2024-08-12 18:27:15","b0e02d76891de4098917a4775b26ae70","24.96.78.114","Mozilla/5.0 (X11; Linux x86_64; rv:130.0) Gecko/20100101 Firefox/130.0","","Linux","","https://wvbvqp7xwd.cognition.run/","en-US,en;q=0.7,en-GB;q=0.3","4863","0","","","","","","","<img src=""Compare-Scatter-Color-Blur.png"" style=""max-width:80%; margin:10px;""><br>China is spending more energy than the U.S. in 2019","","","",""
"","","","Firefox","130.0","","","","","","","survey-multi-choice","54","1114605","0.0-54.0","5048","1","2024-08-12 18:27:15","b0e02d76891de4098917a4775b26ae70","24.96.78.114","Mozilla/5.0 (X11; Linux x86_64; rv:130.0) Gecko/20100101 Firefox/130.0","","Linux","","https://wvbvqp7xwd.cognition.run/","en-US,en;q=0.7,en-GB;q=0.3","2885","{""Q0"":""Male""}","","","","","","","","[0]","","",""
"","","","Firefox","130.0","","","","","","","free-sort","55","1261980","0.0-55.0","5048","1","2024-08-12 18:27:15","b0e02d76891de4098917a4775b26ae70","24.96.78.114","Mozilla/5.0 (X11; Linux x86_64; rv:130.0) Gecko/20100101 Firefox/130.0","","Linux","","https://wvbvqp7xwd.cognition.run/","en-US,en;q=0.7,en-GB;q=0.3","147373","","","","","","","","","","[{""src"":""Sort-Range-Bar-Bound.png"",""x"":802,""y"":18},{""src"":""Sort-Range-Bar-Line.png"",""x"":230,""y"":9},{""src"":""Sort-Range-Bar-Color.png"",""x"":685,""y"":18},{""src"":""Sort-Range-Bar-Opacity.png"",""x"":752,""y"":1},{""src"":""Sort-Range-Bar-Shade.png"",""x"":136,""y"":9}]","[{""src"":""Sort-Range-Bar-Opacity.png"",""x"":995,""y"":15},{""src"":""Sort-Range-Bar-Line.png"",""x"":436,""y"":25},{""src"":""Sort-Range-Bar-Color.png"",""x"":582,""y"":57},{""src"":""Sort-Range-Bar-Line.png"",""x"":1177,""y"":59},{""src"":""Sort-Range-Bar-Opacity.png"",""x"":396,""y"":75},{""src"":""Sort-Range-Bar-Bound.png"",""x"":222,""y"":44},{""src"":""Sort-Range-Bar-Opacity.png"",""x"":976,""y"":18},{""src"":""Sort-Range-Bar-Line.png"",""x"":1179,""y"":20},{""src"":""Sort-Range-Bar-Opacity.png"",""x"":989,""y"":38},{""src"":""Sort-Range-Bar-Opacity.png"",""x"":1005,""y"":15},{""src"":""Sort-Range-Bar-Opacity.png"",""x"":982,""y"":40},{""src"":""Sort-Range-Bar-Opacity.png"",""x"":984,""y"":-5},{""src"":""Sort-Range-Bar-Opacity.png"",""x"":977,""y"":21},{""src"":""Sort-Range-Bar-Color.png"",""x"":748,""y"":19},{""src"":""Sort-Range-Bar-Shade.png"",""x"":507,""y"":21},{""src"":""Sort-Range-Bar-Bound.png"",""x"":352,""y"":21},{""src"":""Sort-Range-Bar-Shade.png"",""x"":533,""y"":15},{""src"":""Sort-Range-Bar-Color.png"",""x"":268,""y"":13},{""src"":""Sort-Range-Bar-Shade.png"",""x"":765,""y"":20},{""src"":""Sort-Range-Bar-Bound.png"",""x"":593,""y"":9},{""src"":""Sort-Range-Bar-Bound.png"",""x"":594,""y"":17},{""src"":""Sort-Range-Bar-Color.png"",""x"":691,""y"":15}]","[{""src"":""Sort-Range-Bar-Bound.png"",""x"":594,""y"":17},{""src"":""Sort-Range-Bar-Line.png"",""x"":1179,""y"":20},{""src"":""Sort-Range-Bar-Color.png"",""x"":691,""y"":15},{""src"":""Sort-Range-Bar-Opacity.png"",""x"":977,""y"":21},{""src"":""Sort-Range-Bar-Shade.png"",""x"":765,""y"":20}]"
"","","","Firefox","130.0","","","","","","","free-sort","56","1322433","0.0-56.0","5048","1","2024-08-12 18:27:15","b0e02d76891de4098917a4775b26ae70","24.96.78.114","Mozilla/5.0 (X11; Linux x86_64; rv:130.0) Gecko/20100101 Firefox/130.0","","Linux","","https://wvbvqp7xwd.cognition.run/","en-US,en;q=0.7,en-GB;q=0.3","60450","","","","","","","","","","[{""src"":""Sort-Range-Line-Bound.png"",""x"":237,""y"":23},{""src"":""Sort-Range-Line-Line.png"",""x"":146,""y"":25},{""src"":""Sort-Range-Line-Color.png"",""x"":853,""y"":4},{""src"":""Sort-Range-Line-Opacity.png"",""x"":108,""y"":16},{""src"":""Sort-Range-Line-Shade.png"",""x"":397,""y"":25}]","[{""src"":""Sort-Range-Line-Shade.png"",""x"":573,""y"":21},{""src"":""Sort-Range-Line-Bound.png"",""x"":388,""y"":21},{""src"":""Sort-Range-Line-Opacity.png"",""x"":2,""y"":64},{""src"":""Sort-Range-Line-Color.png"",""x"":1183,""y"":14},{""src"":""Sort-Range-Line-Line.png"",""x"":994,""y"":13},{""src"":""Sort-Range-Line-Opacity.png"",""x"":149,""y"":31},{""src"":""Sort-Range-Line-Shade.png"",""x"":797,""y"":15},{""src"":""Sort-Range-Line-Bound.png"",""x"":605,""y"":8},{""src"":""Sort-Range-Line-Shade.png"",""x"":829,""y"":14},{""src"":""Sort-Range-Line-Line.png"",""x"":740,""y"":25},{""src"":""Sort-Range-Line-Shade.png"",""x"":989,""y"":18},{""src"":""Sort-Range-Line-Line.png"",""x"":915,""y"":18},{""src"":""Sort-Range-Line-Bound.png"",""x"":599,""y"":14},{""src"":""Sort-Range-Line-Opacity.png"",""x"":231,""y"":17}]","[{""src"":""Sort-Range-Line-Bound.png"",""x"":599,""y"":14},{""src"":""Sort-Range-Line-Line.png"",""x"":915,""y"":18},{""src"":""Sort-Range-Line-Color.png"",""x"":1183,""y"":14},{""src"":""Sort-Range-Line-Opacity.png"",""x"":231,""y"":17},{""src"":""Sort-Range-Line-Shade.png"",""x"":989,""y"":18}]"
"","","","Firefox","130.0","","","","","","","free-sort","57","1468526","0.0-57.0","5048","1","2024-08-12 18:27:15","b0e02d76891de4098917a4775b26ae70","24.96.78.114","Mozilla/5.0 (X11; Linux x86_64; rv:130.0) Gecko/20100101 Firefox/130.0","","Linux","","https://wvbvqp7xwd.cognition.run/","en-US,en;q=0.7,en-GB;q=0.3","146089","","","","","","","","","","[{""src"":""Sort-Compare-Scatter-Color.png"",""x"":413,""y"":11},{""src"":""Sort-Compare-Scatter-Mark.png"",""x"":794,""y"":5},{""src"":""Sort-Compare-Scatter-Opacity.png"",""x"":406,""y"":37},{""src"":""Sort-Compare-Scatter-Text.png"",""x"":335,""y"":33}]","[{""src"":""Sort-Compare-Scatter-Text.png"",""x"":188,""y"":27},{""src"":""Sort-Compare-Scatter-Opacity.png"",""x"":616,""y"":15},{""src"":""Sort-Compare-Scatter-Color.png"",""x"":366,""y"":13},{""src"":""Sort-Compare-Scatter-Mark.png"",""x"":948,""y"":6},{""src"":""Sort-Compare-Scatter-Opacity.png"",""x"":754,""y"":18},{""src"":""Sort-Compare-Scatter-Color.png"",""x"":513,""y"":7},{""src"":""Sort-Compare-Scatter-Text.png"",""x"":192,""y"":24},{""src"":""Sort-Compare-Scatter-Color.png"",""x"":393,""y"":11},{""src"":""Sort-Compare-Scatter-Opacity.png"",""x"":633,""y"":17},{""src"":""Sort-Compare-Scatter-Mark.png"",""x"":919,""y"":9},{""src"":""Sort-Compare-Scatter-Color.png"",""x"":449,""y"":31},{""src"":""Sort-Compare-Scatter-Opacity.png"",""x"":655,""y"":16},{""src"":""Sort-Compare-Scatter-Mark.png"",""x"":1101,""y"":24},{""src"":""Sort-Compare-Scatter-Text.png"",""x"":749,""y"":19},{""src"":""Sort-Compare-Scatter-Opacity.png"",""x"":860,""y"":17},{""src"":""Sort-Compare-Scatter-Color.png"",""x"":618,""y"":15},{""src"":""Sort-Compare-Scatter-Text.png"",""x"":691,""y"":11},{""src"":""Sort-Compare-Scatter-Color.png"",""x"":774,""y"":13},{""src"":""Sort-Compare-Scatter-Text.png"",""x"":568,""y"":12},{""src"":""Sort-Compare-Scatter-Opacity.png"",""x"":1008,""y"":11},{""src"":""Sort-Compare-Scatter-Opacity.png"",""x"":969,""y"":17},{""src"":""Sort-Compare-Scatter-Color.png"",""x"":774,""y"":13},{""src"":""Sort-Compare-Scatter-Opacity.png"",""x"":959,""y"":27},{""src"":""Sort-Compare-Scatter-Color.png"",""x"":790,""y"":23},{""src"":""Sort-Compare-Scatter-Text.png"",""x"":679,""y"":26},{""src"":""Sort-Compare-Scatter-Mark.png"",""x"":1167,""y"":20},{""src"":""Sort-Compare-Scatter-Opacity.png"",""x"":1037,""y"":14},{""src"":""Sort-Compare-Scatter-Opacity.png"",""x"":1019,""y"":27},{""src"":""Sort-Compare-Scatter-Color.png"",""x"":843,""y"":18},{""src"":""Sort-Compare-Scatter-Text.png"",""x"":776,""y"":23},{""src"":""Sort-Compare-Scatter-Text.png"",""x"":444,""y"":14},{""src"":""Sort-Compare-Scatter-Color.png"",""x"":351,""y"":20},{""src"":""Sort-Compare-Scatter-Opacity.png"",""x"":857,""y"":19},{""src"":""Sort-Compare-Scatter-Opacity.png"",""x"":857,""y"":19},{""src"":""Sort-Compare-Scatter-Opacity.png"",""x"":857,""y"":19},{""src"":""Sort-Compare-Scatter-Mark.png"",""x"":1111,""y"":21},{""src"":""Sort-Compare-Scatter-Opacity.png"",""x"":821,""y"":16},{""src"":""Sort-Compare-Scatter-Mark.png"",""x"":1043,""y"":15},{""src"":""Sort-Compare-Scatter-Mark.png"",""x"":1003,""y"":15}]","[{""src"":""Sort-Compare-Scatter-Color.png"",""x"":351,""y"":20},{""src"":""Sort-Compare-Scatter-Mark.png"",""x"":1003,""y"":15},{""src"":""Sort-Compare-Scatter-Opacity.png"",""x"":821,""y"":16},{""src"":""Sort-Compare-Scatter-Text.png"",""x"":444,""y"":14}]"
"","","","Firefox","130.0","","","","","","","html-button-response","58","1474803","0.0-58.0","5048","1","2024-08-12 18:27:15","b0e02d76891de4098917a4775b26ae70","24.96.78.114","Mozilla/5.0 (X11; Linux x86_64; rv:130.0) Gecko/20100101 Firefox/130.0","","Linux","","https://wvbvqp7xwd.cognition.run/","en-US,en;q=0.7,en-GB;q=0.3","6273","0","","","","","","","<p> Thanks for your participation! The prolific code is <b>CVE7UWMV</b></p> Please copy and paste the code before you exit.","","","",""
