"width","height","webaudio","browser","browser_version","mobile","os","fullscreen","vsync_rate","webcam","microphone","trial_type","trial_index","time_elapsed","internal_node_id","run_id","condition","recorded_at","source_code_version","ip","user_agent","device","platform","platform_version","referer","accept_language","rt","response","success","item_width_mm","item_height_mm","item_width_px","px2mm","scale_factor","stimulus","question_order","init_locations","moves","final_locations"
"1853","948","true","Chrome","112.0.0.0","false","Linux","true","60.02","true","true","browser-check","0","1007","0.0-0.0","63","1","2024-07-29 18:29:51","b0e02d76891de4098917a4775b26ae70","24.73.113.35","Mozilla/5.0 (X11; Linux x86_64) AppleWebKit/537.36 (KHTML, like Gecko) Chrome/112.0.0.0 Safari/537.36","WebKit","Linux","","https://wvbvqp7xwd.cognition.run/","en-US,en;q=0.9","","","","","","","","","","","","",""
"","","","Chrome","112.0.0.0","","","","","","","survey-text","1","7092","0.0-1.0","63","1","2024-07-29 18:29:51","b0e02d76891de4098917a4775b26ae70","24.73.113.35","Mozilla/5.0 (X11; Linux x86_64) AppleWebKit/537.36 (KHTML, like Gecko) Chrome/112.0.0.0 Safari/537.36","WebKit","Linux","","https://wvbvqp7xwd.cognition.run/","en-US,en;q=0.9","6082","{""Q0"":""663f548488a9b23078aca06c""}","","","","","","","","","","",""
"","","","Chrome","112.0.0.0","","","","","","","fullscreen","2","14500","0.0-2.0","63","1","2024-07-29 18:29:51","b0e02d76891de4098917a4775b26ae70","24.73.113.35","Mozilla/5.0 (X11; Linux x86_64) AppleWebKit/537.36 (KHTML, like Gecko) Chrome/112.0.0.0 Safari/537.36","WebKit","Linux","","https://wvbvqp7xwd.cognition.run/","en-US,en;q=0.9","6399","","true","","","","","","","","","",""
"","","","Chrome","112.0.0.0","","","","","","","virtual-chinrest","3","86365","0.0-3.0","63","1","2024-07-29 18:29:51","b0e02d76891de4098917a4775b26ae70","24.73.113.35","Mozilla/5.0 (X11; Linux x86_64) AppleWebKit/537.36 (KHTML, like Gecko) Chrome/112.0.0.0 Safari/537.36","WebKit","Linux","","https://wvbvqp7xwd.cognition.run/","en-US,en;q=0.9","71864","","","85.6","53.98","427.63157894736844","5","0.608","","","","",""
"","","","Chrome","112.0.0.0","","","","","","","html-button-response","4","92917","0.0-4.0","63","1","2024-07-29 18:29:51","b0e02d76891de4098917a4775b26ae70","24.73.113.35","Mozilla/5.0 (X11; Linux x86_64) AppleWebKit/537.36 (KHTML, like Gecko) Chrome/112.0.0.0 Safari/537.36","WebKit","Linux","","https://wvbvqp7xwd.cognition.run/","en-US,en;q=0.9","6550","0","","","","","","","
    <p>If the measurements were done correctly, the square below should be 10 cm x 10 cm.</p>
    <div style=""background-color: black; width: 500px; height: 500px; margin: 20px auto;""></div>
    ","","","",""
"","","","Chrome","112.0.0.0","","","","","","","survey-multi-choice","5","100036","0.0-5.0","63","1","2024-07-29 18:29:51","b0e02d76891de4098917a4775b26ae70","24.73.113.35","Mozilla/5.0 (X11; Linux x86_64) AppleWebKit/537.36 (KHTML, like Gecko) Chrome/112.0.0.0 Safari/537.36","WebKit","Linux","","https://wvbvqp7xwd.cognition.run/","en-US,en;q=0.9","7118","{""Q0"":""durian""}","","","","","","","","[0]","","",""
"","","","Chrome","112.0.0.0","","","","","","","html-button-response","6","102820","0.0-6.0","63","1","2024-07-29 18:29:51","b0e02d76891de4098917a4775b26ae70","24.73.113.35","Mozilla/5.0 (X11; Linux x86_64) AppleWebKit/537.36 (KHTML, like Gecko) Chrome/112.0.0.0 Safari/537.36","WebKit","Linux","","https://wvbvqp7xwd.cognition.run/","en-US,en;q=0.9","2781","0","","","","","","","<p>Great! You passed the attention check. Now let's begin!</p>","","","",""
"","","","Chrome","112.0.0.0","","","","","","","html-button-response","7","115708","0.0-7.0","63","1","2024-07-29 18:29:51","b0e02d76891de4098917a4775b26ae70","24.73.113.35","Mozilla/5.0 (X11; Linux x86_64) AppleWebKit/537.36 (KHTML, like Gecko) Chrome/112.0.0.0 Safari/537.36","WebKit","Linux","","https://wvbvqp7xwd.cognition.run/","en-US,en;q=0.9","12887","0","","","","","","","<p>In this experiment, you will see 15 dashboards, each for 20 seconds.</p> <p> You need to <b>remember the data fact</b> shown on the dashboard, and try to recall whether it is <b>True or False</b> later.</p>","","","",""
"","","","Chrome","112.0.0.0","","","","","","","html-button-response","8","123068","0.0-8.0","63","1","2024-07-29 18:29:51","b0e02d76891de4098917a4775b26ae70","24.73.113.35","Mozilla/5.0 (X11; Linux x86_64) AppleWebKit/537.36 (KHTML, like Gecko) Chrome/112.0.0.0 Safari/537.36","WebKit","Linux","","https://wvbvqp7xwd.cognition.run/","en-US,en;q=0.9","7359","0","","","","","","","<p>Your response will be collected and evaluated. If any irregularities are found (such as selecting the same answer for all questions or displaying very low overall accuracy), you may not receive payment.</p>","","","",""
"","","","Chrome","112.0.0.0","","","","","","","image-keyboard-response","9","143076","0.0-9.0","63","1","2024-07-29 18:29:51","b0e02d76891de4098917a4775b26ae70","24.73.113.35","Mozilla/5.0 (X11; Linux x86_64) AppleWebKit/537.36 (KHTML, like Gecko) Chrome/112.0.0.0 Safari/537.36","WebKit","Linux","","https://wvbvqp7xwd.cognition.run/","en-US,en;q=0.9","null","null","","","","","","","Filter-Bar-Line.png","","","",""
"","","","Chrome","112.0.0.0","","","","","","","html-button-response","10","151580","0.0-10.0","63","1","2024-07-29 18:29:51","b0e02d76891de4098917a4775b26ae70","24.73.113.35","Mozilla/5.0 (X11; Linux x86_64) AppleWebKit/537.36 (KHTML, like Gecko) Chrome/112.0.0.0 Safari/537.36","WebKit","Linux","","https://wvbvqp7xwd.cognition.run/","en-US,en;q=0.9","8503","0","","","","","","","<img src=""Filter-Bar-Line-Blur.png"" style=""max-width:80%; margin:10px;""><br>The number of mobile customers in UK drops below 20 million from 2018 to 2019.","","","",""
"","","","Chrome","112.0.0.0","","","","","","","html-button-response","11","158348","0.0-11.0","63","1","2024-07-29 18:29:51","b0e02d76891de4098917a4775b26ae70","24.73.113.35","Mozilla/5.0 (X11; Linux x86_64) AppleWebKit/537.36 (KHTML, like Gecko) Chrome/112.0.0.0 Safari/537.36","WebKit","Linux","","https://wvbvqp7xwd.cognition.run/","en-US,en;q=0.9","6766","0","","","","","","","<img src=""Filter-Bar-Line-Blur.png"" style=""max-width:80%; margin:10px;""><br>The number of hospitals in the U.S. has been higher than 3500 thousands since 2014.","","","",""
"","","","Chrome","112.0.0.0","","","","","","","image-keyboard-response","12","178356","0.0-12.0","63","1","2024-07-29 18:29:51","b0e02d76891de4098917a4775b26ae70","24.73.113.35","Mozilla/5.0 (X11; Linux x86_64) AppleWebKit/537.36 (KHTML, like Gecko) Chrome/112.0.0.0 Safari/537.36","WebKit","Linux","","https://wvbvqp7xwd.cognition.run/","en-US,en;q=0.9","null","null","","","","","","","Range-Bar-Line.png","","","",""
"","","","Chrome","112.0.0.0","","","","","","","html-button-response","13","186692","0.0-13.0","63","1","2024-07-29 18:29:51","b0e02d76891de4098917a4775b26ae70","24.73.113.35","Mozilla/5.0 (X11; Linux x86_64) AppleWebKit/537.36 (KHTML, like Gecko) Chrome/112.0.0.0 Safari/537.36","WebKit","Linux","","https://wvbvqp7xwd.cognition.run/","en-US,en;q=0.9","8335","1","","","","","","","<img src=""Range-Bar-Line-Blur.png"" style=""max-width:80%; margin:10px;""><br>People from most Asian countries spent 80 to 100 hours on smartphones.","","","",""
"","","","Chrome","112.0.0.0","","","","","","","html-button-response","14","193708","0.0-14.0","63","1","2024-07-29 18:29:51","b0e02d76891de4098917a4775b26ae70","24.73.113.35","Mozilla/5.0 (X11; Linux x86_64) AppleWebKit/537.36 (KHTML, like Gecko) Chrome/112.0.0.0 Safari/537.36","WebKit","Linux","","https://wvbvqp7xwd.cognition.run/","en-US,en;q=0.9","7014","0","","","","","","","<img src=""Range-Bar-Line-Blur.png"" style=""max-width:80%; margin:10px;""><br>Since 2014, the unit sales is between 0.5 and 1.4 milion","","","",""
"","","","Chrome","112.0.0.0","","","","","","","image-keyboard-response","15","213716","0.0-15.0","63","1","2024-07-29 18:29:51","b0e02d76891de4098917a4775b26ae70","24.73.113.35","Mozilla/5.0 (X11; Linux x86_64) AppleWebKit/537.36 (KHTML, like Gecko) Chrome/112.0.0.0 Safari/537.36","WebKit","Linux","","https://wvbvqp7xwd.cognition.run/","en-US,en;q=0.9","null","null","","","","","","","RetrieveValue-Bar-Line.png","","","",""
"","","","Chrome","112.0.0.0","","","","","","","html-button-response","16","221148","0.0-16.0","63","1","2024-07-29 18:29:51","b0e02d76891de4098917a4775b26ae70","24.73.113.35","Mozilla/5.0 (X11; Linux x86_64) AppleWebKit/537.36 (KHTML, like Gecko) Chrome/112.0.0.0 Safari/537.36","WebKit","Linux","","https://wvbvqp7xwd.cognition.run/","en-US,en;q=0.9","7431","1","","","","","","","<img src=""RetrieveValue-Bar-Line-Blur.png"" style=""max-width:80%; margin:10px;""><br>In 2016, the national debt of Ireland reached the highest.","","","",""
"","","","Chrome","112.0.0.0","","","","","","","html-button-response","17","224565","0.0-17.0","63","1","2024-07-29 18:29:51","b0e02d76891de4098917a4775b26ae70","24.73.113.35","Mozilla/5.0 (X11; Linux x86_64) AppleWebKit/537.36 (KHTML, like Gecko) Chrome/112.0.0.0 Safari/537.36","WebKit","Linux","","https://wvbvqp7xwd.cognition.run/","en-US,en;q=0.9","3415","0","","","","","","","<img src=""RetrieveValue-Bar-Line-Blur.png"" style=""max-width:80%; margin:10px;""><br>In 2007, Waste Management operating value is around 5000 million dollars.","","","",""
"","","","Chrome","112.0.0.0","","","","","","","image-keyboard-response","18","244572","0.0-18.0","63","1","2024-07-29 18:29:51","b0e02d76891de4098917a4775b26ae70","24.73.113.35","Mozilla/5.0 (X11; Linux x86_64) AppleWebKit/537.36 (KHTML, like Gecko) Chrome/112.0.0.0 Safari/537.36","WebKit","Linux","","https://wvbvqp7xwd.cognition.run/","en-US,en;q=0.9","null","null","","","","","","","Trend-Bar-Opacity.png","","","",""
"","","","Chrome","112.0.0.0","","","","","","","html-button-response","19","251068","0.0-19.0","63","1","2024-07-29 18:29:51","b0e02d76891de4098917a4775b26ae70","24.73.113.35","Mozilla/5.0 (X11; Linux x86_64) AppleWebKit/537.36 (KHTML, like Gecko) Chrome/112.0.0.0 Safari/537.36","WebKit","Linux","","https://wvbvqp7xwd.cognition.run/","en-US,en;q=0.9","6495","0","","","","","","","<img src=""Trend-Bar-Opacity-Blur.png"" style=""max-width:80%; margin:10px;""><br>The employee number of Brunswick investment banking increased from 2014 to 2017","","","",""
"","","","Chrome","112.0.0.0","","","","","","","html-button-response","20","254892","0.0-20.0","63","1","2024-07-29 18:29:51","b0e02d76891de4098917a4775b26ae70","24.73.113.35","Mozilla/5.0 (X11; Linux x86_64) AppleWebKit/537.36 (KHTML, like Gecko) Chrome/112.0.0.0 Safari/537.36","WebKit","Linux","","https://wvbvqp7xwd.cognition.run/","en-US,en;q=0.9","3823","0","","","","","","","<img src=""Trend-Bar-Opacity-Blur.png"" style=""max-width:80%; margin:10px;""><br>The alcohol consumption in UK has been increasing since 2010.","","","",""
"","","","Chrome","112.0.0.0","","","","","","","image-keyboard-response","21","274900","0.0-21.0","63","1","2024-07-29 18:29:51","b0e02d76891de4098917a4775b26ae70","24.73.113.35","Mozilla/5.0 (X11; Linux x86_64) AppleWebKit/537.36 (KHTML, like Gecko) Chrome/112.0.0.0 Safari/537.36","WebKit","Linux","","https://wvbvqp7xwd.cognition.run/","en-US,en;q=0.9","null","null","","","","","","","Comapre-Bar-Mark.png","","","",""
"","","","Chrome","112.0.0.0","","","","","","","html-button-response","22","284268","0.0-22.0","63","1","2024-07-29 18:29:51","b0e02d76891de4098917a4775b26ae70","24.73.113.35","Mozilla/5.0 (X11; Linux x86_64) AppleWebKit/537.36 (KHTML, like Gecko) Chrome/112.0.0.0 Safari/537.36","WebKit","Linux","","https://wvbvqp7xwd.cognition.run/","en-US,en;q=0.9","9367","0","","","","","","","<img src=""Comapre-Bar-Mark-Blur.png"" style=""max-width:80%; margin:10px;""><br>China is spending more energy than the U.S. in 2019","","","",""
"","","","Chrome","112.0.0.0","","","","","","","html-button-response","23","290324","0.0-23.0","63","1","2024-07-29 18:29:51","b0e02d76891de4098917a4775b26ae70","24.73.113.35","Mozilla/5.0 (X11; Linux x86_64) AppleWebKit/537.36 (KHTML, like Gecko) Chrome/112.0.0.0 Safari/537.36","WebKit","Linux","","https://wvbvqp7xwd.cognition.run/","en-US,en;q=0.9","6054","1","","","","","","","<img src=""Comapre-Bar-Mark-Blur.png"" style=""max-width:80%; margin:10px;""><br>The operating profit of Roche group is lower in 2008 than in 2018","","","",""
"","","","Chrome","112.0.0.0","","","","","","","image-keyboard-response","24","310332","0.0-24.0","63","1","2024-07-29 18:29:51","b0e02d76891de4098917a4775b26ae70","24.73.113.35","Mozilla/5.0 (X11; Linux x86_64) AppleWebKit/537.36 (KHTML, like Gecko) Chrome/112.0.0.0 Safari/537.36","WebKit","Linux","","https://wvbvqp7xwd.cognition.run/","en-US,en;q=0.9","null","null","","","","","","","Filter-Line-Shade.png","","","",""
"","","","Chrome","112.0.0.0","","","","","","","html-button-response","25","318908","0.0-25.0","63","1","2024-07-29 18:29:51","b0e02d76891de4098917a4775b26ae70","24.73.113.35","Mozilla/5.0 (X11; Linux x86_64) AppleWebKit/537.36 (KHTML, like Gecko) Chrome/112.0.0.0 Safari/537.36","WebKit","Linux","","https://wvbvqp7xwd.cognition.run/","en-US,en;q=0.9","8575","0","","","","","","","<img src=""Filter-Line-Shade-Blur.png"" style=""max-width:80%; margin:10px;""><br>The number of hospitals in the U.S. has been higher than 3500 thousands since 2014.","","","",""
"","","","Chrome","112.0.0.0","","","","","","","html-button-response","26","322125","0.0-26.0","63","1","2024-07-29 18:29:51","b0e02d76891de4098917a4775b26ae70","24.73.113.35","Mozilla/5.0 (X11; Linux x86_64) AppleWebKit/537.36 (KHTML, like Gecko) Chrome/112.0.0.0 Safari/537.36","WebKit","Linux","","https://wvbvqp7xwd.cognition.run/","en-US,en;q=0.9","3214","0","","","","","","","<img src=""Filter-Line-Shade-Blur.png"" style=""max-width:80%; margin:10px;""><br>Some penguins are heavier than 5000 g","","","",""
"","","","Chrome","112.0.0.0","","","","","","","image-keyboard-response","27","342132","0.0-27.0","63","1","2024-07-29 18:29:51","b0e02d76891de4098917a4775b26ae70","24.73.113.35","Mozilla/5.0 (X11; Linux x86_64) AppleWebKit/537.36 (KHTML, like Gecko) Chrome/112.0.0.0 Safari/537.36","WebKit","Linux","","https://wvbvqp7xwd.cognition.run/","en-US,en;q=0.9","null","null","","","","","","","Range-Line-Opacity.png","","","",""
"","","","Chrome","112.0.0.0","","","","","","","html-button-response","28","348909","0.0-28.0","63","1","2024-07-29 18:29:51","b0e02d76891de4098917a4775b26ae70","24.73.113.35","Mozilla/5.0 (X11; Linux x86_64) AppleWebKit/537.36 (KHTML, like Gecko) Chrome/112.0.0.0 Safari/537.36","WebKit","Linux","","https://wvbvqp7xwd.cognition.run/","en-US,en;q=0.9","6775","1","","","","","","","<img src=""Range-Line-Opacity-Blur.png"" style=""max-width:80%; margin:10px;""><br>Since 2014, the unit sales are between 2 and 3 million.","","","",""
"","","","Chrome","112.0.0.0","","","","","","","html-button-response","29","354965","0.0-29.0","63","1","2024-07-29 18:29:51","b0e02d76891de4098917a4775b26ae70","24.73.113.35","Mozilla/5.0 (X11; Linux x86_64) AppleWebKit/537.36 (KHTML, like Gecko) Chrome/112.0.0.0 Safari/537.36","WebKit","Linux","","https://wvbvqp7xwd.cognition.run/","en-US,en;q=0.9","6054","0","","","","","","","<img src=""Range-Line-Opacity-Blur.png"" style=""max-width:80%; margin:10px;""><br>Most countries have less than 50000 income","","","",""
"","","","Chrome","112.0.0.0","","","","","","","image-keyboard-response","30","374972","0.0-30.0","63","1","2024-07-29 18:29:51","b0e02d76891de4098917a4775b26ae70","24.73.113.35","Mozilla/5.0 (X11; Linux x86_64) AppleWebKit/537.36 (KHTML, like Gecko) Chrome/112.0.0.0 Safari/537.36","WebKit","Linux","","https://wvbvqp7xwd.cognition.run/","en-US,en;q=0.9","null","null","","","","","","","RetrieveValue-Line-Color.png","","","",""
"","","","Chrome","112.0.0.0","","","","","","","html-button-response","31","380237","0.0-31.0","63","1","2024-07-29 18:29:51","b0e02d76891de4098917a4775b26ae70","24.73.113.35","Mozilla/5.0 (X11; Linux x86_64) AppleWebKit/537.36 (KHTML, like Gecko) Chrome/112.0.0.0 Safari/537.36","WebKit","Linux","","https://wvbvqp7xwd.cognition.run/","en-US,en;q=0.9","5263","0","","","","","","","<img src=""RetrieveValue-Line-Color-Blur.png"" style=""max-width:80%; margin:10px;""><br>In 2007, Waste Management operating value is around 13000 million dollars","","","",""
"","","","Chrome","112.0.0.0","","","","","","","html-button-response","32","383909","0.0-32.0","63","1","2024-07-29 18:29:51","b0e02d76891de4098917a4775b26ae70","24.73.113.35","Mozilla/5.0 (X11; Linux x86_64) AppleWebKit/537.36 (KHTML, like Gecko) Chrome/112.0.0.0 Safari/537.36","WebKit","Linux","","https://wvbvqp7xwd.cognition.run/","en-US,en;q=0.9","3670","0","","","","","","","<img src=""RetrieveValue-Line-Color-Blur.png"" style=""max-width:80%; margin:10px;""><br>Car A has about 300 horsepower and runs 30 miles per gallon.","","","",""
"","","","Chrome","112.0.0.0","","","","","","","image-keyboard-response","33","403916","0.0-33.0","63","1","2024-07-29 18:29:51","b0e02d76891de4098917a4775b26ae70","24.73.113.35","Mozilla/5.0 (X11; Linux x86_64) AppleWebKit/537.36 (KHTML, like Gecko) Chrome/112.0.0.0 Safari/537.36","WebKit","Linux","","https://wvbvqp7xwd.cognition.run/","en-US,en;q=0.9","null","null","","","","","","","Trend-Line-Opacity.png","","","",""
"","","","Chrome","112.0.0.0","","","","","","","html-button-response","34","407757","0.0-34.0","63","1","2024-07-29 18:29:51","b0e02d76891de4098917a4775b26ae70","24.73.113.35","Mozilla/5.0 (X11; Linux x86_64) AppleWebKit/537.36 (KHTML, like Gecko) Chrome/112.0.0.0 Safari/537.36","WebKit","Linux","","https://wvbvqp7xwd.cognition.run/","en-US,en;q=0.9","3839","1","","","","","","","<img src=""Trend-Line-Opacity-Blur.png"" style=""max-width:80%; margin:10px;""><br>The alcohol consumption in UK has been increasing since 2010.","","","",""
"","","","Chrome","112.0.0.0","","","","","","","html-button-response","35","410373","0.0-35.0","63","1","2024-07-29 18:29:51","b0e02d76891de4098917a4775b26ae70","24.73.113.35","Mozilla/5.0 (X11; Linux x86_64) AppleWebKit/537.36 (KHTML, like Gecko) Chrome/112.0.0.0 Safari/537.36","WebKit","Linux","","https://wvbvqp7xwd.cognition.run/","en-US,en;q=0.9","2614","1","","","","","","","<img src=""Trend-Line-Opacity-Blur.png"" style=""max-width:80%; margin:10px;""><br>The rotten tomatoes rating is not related to IMDB rating.","","","",""
"","","","Chrome","112.0.0.0","","","","","","","image-keyboard-response","36","430380","0.0-36.0","63","1","2024-07-29 18:29:51","b0e02d76891de4098917a4775b26ae70","24.73.113.35","Mozilla/5.0 (X11; Linux x86_64) AppleWebKit/537.36 (KHTML, like Gecko) Chrome/112.0.0.0 Safari/537.36","WebKit","Linux","","https://wvbvqp7xwd.cognition.run/","en-US,en;q=0.9","null","null","","","","","","","Compare-Line-Color.png","","","",""
"","","","Chrome","112.0.0.0","","","","","","","html-button-response","37","434565","0.0-37.0","63","1","2024-07-29 18:29:51","b0e02d76891de4098917a4775b26ae70","24.73.113.35","Mozilla/5.0 (X11; Linux x86_64) AppleWebKit/537.36 (KHTML, like Gecko) Chrome/112.0.0.0 Safari/537.36","WebKit","Linux","","https://wvbvqp7xwd.cognition.run/","en-US,en;q=0.9","4183","0","","","","","","","<img src=""Compare-Line-Color-Blur.png"" style=""max-width:80%; margin:10px;""><br>The operating profit of Roche group is lower in 2008 than in 2018","","","",""
"","","","Chrome","112.0.0.0","","","","","","","html-button-response","38","439261","0.0-38.0","63","1","2024-07-29 18:29:51","b0e02d76891de4098917a4775b26ae70","24.73.113.35","Mozilla/5.0 (X11; Linux x86_64) AppleWebKit/537.36 (KHTML, like Gecko) Chrome/112.0.0.0 Safari/537.36","WebKit","Linux","","https://wvbvqp7xwd.cognition.run/","en-US,en;q=0.9","4693","0","","","","","","","<img src=""Compare-Line-Color-Blur.png"" style=""max-width:80%; margin:10px;""><br>Penguin A has smaller mass and shorter beak than penguin B.","","","",""
"","","","Chrome","112.0.0.0","","","","","","","image-keyboard-response","39","459268","0.0-39.0","63","1","2024-07-29 18:29:51","b0e02d76891de4098917a4775b26ae70","24.73.113.35","Mozilla/5.0 (X11; Linux x86_64) AppleWebKit/537.36 (KHTML, like Gecko) Chrome/112.0.0.0 Safari/537.36","WebKit","Linux","","https://wvbvqp7xwd.cognition.run/","en-US,en;q=0.9","null","null","","","","","","","Filter-Scatter-Line.png","","","",""
"","","","Chrome","112.0.0.0","","","","","","","html-button-response","40","463109","0.0-40.0","63","1","2024-07-29 18:29:51","b0e02d76891de4098917a4775b26ae70","24.73.113.35","Mozilla/5.0 (X11; Linux x86_64) AppleWebKit/537.36 (KHTML, like Gecko) Chrome/112.0.0.0 Safari/537.36","WebKit","Linux","","https://wvbvqp7xwd.cognition.run/","en-US,en;q=0.9","3839","0","","","","","","","<img src=""Filter-Scatter-Line-Blur.png"" style=""max-width:80%; margin:10px;""><br>Some penguins are heavier than 5000 g","","","",""
"","","","Chrome","112.0.0.0","","","","","","","html-button-response","41","467877","0.0-41.0","63","1","2024-07-29 18:29:51","b0e02d76891de4098917a4775b26ae70","24.73.113.35","Mozilla/5.0 (X11; Linux x86_64) AppleWebKit/537.36 (KHTML, like Gecko) Chrome/112.0.0.0 Safari/537.36","WebKit","Linux","","https://wvbvqp7xwd.cognition.run/","en-US,en;q=0.9","4765","0","","","","","","","<img src=""Filter-Scatter-Line-Blur.png"" style=""max-width:80%; margin:10px;""><br>The number of mobile customers in UK drops below 20 million from 2018 to 2019.","","","",""
"","","","Chrome","112.0.0.0","","","","","","","image-keyboard-response","42","487884","0.0-42.0","63","1","2024-07-29 18:29:51","b0e02d76891de4098917a4775b26ae70","24.73.113.35","Mozilla/5.0 (X11; Linux x86_64) AppleWebKit/537.36 (KHTML, like Gecko) Chrome/112.0.0.0 Safari/537.36","WebKit","Linux","","https://wvbvqp7xwd.cognition.run/","en-US,en;q=0.9","null","null","","","","","","","Range-Scatter-Shade.png","","","",""
"","","","Chrome","112.0.0.0","","","","","","","html-button-response","43","491781","0.0-43.0","63","1","2024-07-29 18:29:51","b0e02d76891de4098917a4775b26ae70","24.73.113.35","Mozilla/5.0 (X11; Linux x86_64) AppleWebKit/537.36 (KHTML, like Gecko) Chrome/112.0.0.0 Safari/537.36","WebKit","Linux","","https://wvbvqp7xwd.cognition.run/","en-US,en;q=0.9","3895","0","","","","","","","<img src=""Range-Scatter-Shade-Blur.png"" style=""max-width:80%; margin:10px;""><br>Most countries have less than 50000 income","","","",""
"","","","Chrome","112.0.0.0","","","","","","","html-button-response","44","495613","0.0-44.0","63","1","2024-07-29 18:29:51","b0e02d76891de4098917a4775b26ae70","24.73.113.35","Mozilla/5.0 (X11; Linux x86_64) AppleWebKit/537.36 (KHTML, like Gecko) Chrome/112.0.0.0 Safari/537.36","WebKit","Linux","","https://wvbvqp7xwd.cognition.run/","en-US,en;q=0.9","3829","0","","","","","","","<img src=""Range-Scatter-Shade-Blur.png"" style=""max-width:80%; margin:10px;""><br>People from most Asian countries spent 50 to 70 hours on smartphones.","","","",""
"","","","Chrome","112.0.0.0","","","","","","","image-keyboard-response","45","515620","0.0-45.0","63","1","2024-07-29 18:29:51","b0e02d76891de4098917a4775b26ae70","24.73.113.35","Mozilla/5.0 (X11; Linux x86_64) AppleWebKit/537.36 (KHTML, like Gecko) Chrome/112.0.0.0 Safari/537.36","WebKit","Linux","","https://wvbvqp7xwd.cognition.run/","en-US,en;q=0.9","null","null","","","","","","","RetrieveValue-Scatter-Line.png","","","",""
"","","","Chrome","112.0.0.0","","","","","","","html-button-response","46","519221","0.0-46.0","63","1","2024-07-29 18:29:51","b0e02d76891de4098917a4775b26ae70","24.73.113.35","Mozilla/5.0 (X11; Linux x86_64) AppleWebKit/537.36 (KHTML, like Gecko) Chrome/112.0.0.0 Safari/537.36","WebKit","Linux","","https://wvbvqp7xwd.cognition.run/","en-US,en;q=0.9","3599","0","","","","","","","<img src=""RetrieveValue-Scatter-Line-Blur.png"" style=""max-width:80%; margin:10px;""><br>Car A has about 300 horsepower and runs 30 miles per gallon.","","","",""
"","","","Chrome","112.0.0.0","","","","","","","html-button-response","47","524381","0.0-47.0","63","1","2024-07-29 18:29:51","b0e02d76891de4098917a4775b26ae70","24.73.113.35","Mozilla/5.0 (X11; Linux x86_64) AppleWebKit/537.36 (KHTML, like Gecko) Chrome/112.0.0.0 Safari/537.36","WebKit","Linux","","https://wvbvqp7xwd.cognition.run/","en-US,en;q=0.9","5158","0","","","","","","","<img src=""RetrieveValue-Scatter-Line-Blur.png"" style=""max-width:80%; margin:10px;""><br>In 2016, the national debt of Ireland reach the lowest.","","","",""
"","","","Chrome","112.0.0.0","","","","","","","image-keyboard-response","48","544388","0.0-48.0","63","1","2024-07-29 18:29:51","b0e02d76891de4098917a4775b26ae70","24.73.113.35","Mozilla/5.0 (X11; Linux x86_64) AppleWebKit/537.36 (KHTML, like Gecko) Chrome/112.0.0.0 Safari/537.36","WebKit","Linux","","https://wvbvqp7xwd.cognition.run/","en-US,en;q=0.9","null","null","","","","","","","Trend-Scatter-Shade.png","","","",""
"","","","Chrome","112.0.0.0","","","","","","","html-button-response","49","548982","0.0-49.0","63","1","2024-07-29 18:29:51","b0e02d76891de4098917a4775b26ae70","24.73.113.35","Mozilla/5.0 (X11; Linux x86_64) AppleWebKit/537.36 (KHTML, like Gecko) Chrome/112.0.0.0 Safari/537.36","WebKit","Linux","","https://wvbvqp7xwd.cognition.run/","en-US,en;q=0.9","4591","0","","","","","","","<img src=""Trend-Scatter-Shade-Blur.png"" style=""max-width:80%; margin:10px;""><br>The rotten tomatoes rating is related to IMDB rating","","","",""
"","","","Chrome","112.0.0.0","","","","","","","html-button-response","50","554294","0.0-50.0","63","1","2024-07-29 18:29:51","b0e02d76891de4098917a4775b26ae70","24.73.113.35","Mozilla/5.0 (X11; Linux x86_64) AppleWebKit/537.36 (KHTML, like Gecko) Chrome/112.0.0.0 Safari/537.36","WebKit","Linux","","https://wvbvqp7xwd.cognition.run/","en-US,en;q=0.9","5308","1","","","","","","","<img src=""Trend-Scatter-Shade-Blur.png"" style=""max-width:80%; margin:10px;""><br>The employee number of Brunswick investment banking increased from 2014 to 2017","","","",""
"","","","Chrome","112.0.0.0","","","","","","","image-keyboard-response","51","574300","0.0-51.0","63","1","2024-07-29 18:29:51","b0e02d76891de4098917a4775b26ae70","24.73.113.35","Mozilla/5.0 (X11; Linux x86_64) AppleWebKit/537.36 (KHTML, like Gecko) Chrome/112.0.0.0 Safari/537.36","WebKit","Linux","","https://wvbvqp7xwd.cognition.run/","en-US,en;q=0.9","null","null","","","","","","","Compare-Scatter-Color.png","","","",""
"","","","Chrome","112.0.0.0","","","","","","","html-button-response","52","578830","0.0-52.0","63","1","2024-07-29 18:29:51","b0e02d76891de4098917a4775b26ae70","24.73.113.35","Mozilla/5.0 (X11; Linux x86_64) AppleWebKit/537.36 (KHTML, like Gecko) Chrome/112.0.0.0 Safari/537.36","WebKit","Linux","","https://wvbvqp7xwd.cognition.run/","en-US,en;q=0.9","4527","0","","","","","","","<img src=""Compare-Scatter-Color-Blur.png"" style=""max-width:80%; margin:10px;""><br>Penguin A has smaller mass and shorter beak than penguin B.","","","",""
"","","","Chrome","112.0.0.0","","","","","","","html-button-response","53","583174","0.0-53.0","63","1","2024-07-29 18:29:51","b0e02d76891de4098917a4775b26ae70","24.73.113.35","Mozilla/5.0 (X11; Linux x86_64) AppleWebKit/537.36 (KHTML, like Gecko) Chrome/112.0.0.0 Safari/537.36","WebKit","Linux","","https://wvbvqp7xwd.cognition.run/","en-US,en;q=0.9","4341","1","","","","","","","<img src=""Compare-Scatter-Color-Blur.png"" style=""max-width:80%; margin:10px;""><br>China is spending less energy than the U.S. in 2019.","","","",""
"","","","Chrome","112.0.0.0","","","","","","","survey-multi-choice","54","587302","0.0-54.0","63","1","2024-07-29 18:29:51","b0e02d76891de4098917a4775b26ae70","24.73.113.35","Mozilla/5.0 (X11; Linux x86_64) AppleWebKit/537.36 (KHTML, like Gecko) Chrome/112.0.0.0 Safari/537.36","WebKit","Linux","","https://wvbvqp7xwd.cognition.run/","en-US,en;q=0.9","4124","{""Q0"":""Female""}","","","","","","","","[0]","","",""
"","","","Chrome","112.0.0.0","","","","","","","free-sort","55","658423","0.0-55.0","63","1","2024-07-29 18:29:51","b0e02d76891de4098917a4775b26ae70","24.73.113.35","Mozilla/5.0 (X11; Linux x86_64) AppleWebKit/537.36 (KHTML, like Gecko) Chrome/112.0.0.0 Safari/537.36","WebKit","Linux","","https://wvbvqp7xwd.cognition.run/","en-US,en;q=0.9","71115","","","","","","","","","","[{""src"":""Sort-Compare-Bar-Color.png"",""x"":792,""y"":4},{""src"":""Sort-Compare-Bar-Mark.png"",""x"":1154,""y"":7},{""src"":""Sort-Compare-Bar-Opacity.png"",""x"":23,""y"":0},{""src"":""Sort-Compare-Bar-Text.png"",""x"":608,""y"":34}]","[{""src"":""Sort-Compare-Bar-Opacity.png"",""x"":81,""y"":19},{""src"":""Sort-Compare-Bar-Text.png"",""x"":352,""y"":36},{""src"":""Sort-Compare-Bar-Color.png"",""x"":640,""y"":27},{""src"":""Sort-Compare-Bar-Mark.png"",""x"":924,""y"":22},{""src"":""Sort-Compare-Bar-Opacity.png"",""x"":1068,""y"":24},{""src"":""Sort-Compare-Bar-Text.png"",""x"":159,""y"":37},{""src"":""Sort-Compare-Bar-Color.png"",""x"":475,""y"":38},{""src"":""Sort-Compare-Bar-Mark.png"",""x"":783,""y"":26},{""src"":""Sort-Compare-Bar-Color.png"",""x"":789,""y"":44},{""src"":""Sort-Compare-Bar-Mark.png"",""x"":475,""y"":32}]","[{""src"":""Sort-Compare-Bar-Color.png"",""x"":789,""y"":44},{""src"":""Sort-Compare-Bar-Mark.png"",""x"":475,""y"":32},{""src"":""Sort-Compare-Bar-Opacity.png"",""x"":1068,""y"":24},{""src"":""Sort-Compare-Bar-Text.png"",""x"":159,""y"":37}]"
"","","","Chrome","112.0.0.0","","","","","","","free-sort","56","694983","0.0-56.0","63","1","2024-07-29 18:29:51","b0e02d76891de4098917a4775b26ae70","24.73.113.35","Mozilla/5.0 (X11; Linux x86_64) AppleWebKit/537.36 (KHTML, like Gecko) Chrome/112.0.0.0 Safari/537.36","WebKit","Linux","","https://wvbvqp7xwd.cognition.run/","en-US,en;q=0.9","36555","","","","","","","","","","[{""src"":""Sort-Range-Line-Bound.png"",""x"":109,""y"":19},{""src"":""Sort-Range-Line-Line.png"",""x"":625,""y"":6},{""src"":""Sort-Range-Line-Color.png"",""x"":211,""y"":9},{""src"":""Sort-Range-Line-Opacity.png"",""x"":515,""y"":8},{""src"":""Sort-Range-Line-Shade.png"",""x"":668,""y"":28}]","[{""src"":""Sort-Range-Line-Shade.png"",""x"":922,""y"":18},{""src"":""Sort-Range-Line-Opacity.png"",""x"":406,""y"":13},{""src"":""Sort-Range-Line-Line.png"",""x"":679,""y"":4},{""src"":""Sort-Range-Line-Color.png"",""x"":251,""y"":15},{""src"":""Sort-Range-Line-Color.png"",""x"":960,""y"":33},{""src"":""Sort-Range-Line-Color.png"",""x"":1104,""y"":23},{""src"":""Sort-Range-Line-Opacity.png"",""x"":330,""y"":11},{""src"":""Sort-Range-Line-Bound.png"",""x"":103,""y"":20},{""src"":""Sort-Range-Line-Opacity.png"",""x"":305,""y"":15},{""src"":""Sort-Range-Line-Line.png"",""x"":558,""y"":27}]","[{""src"":""Sort-Range-Line-Bound.png"",""x"":103,""y"":20},{""src"":""Sort-Range-Line-Line.png"",""x"":558,""y"":27},{""src"":""Sort-Range-Line-Color.png"",""x"":1104,""y"":23},{""src"":""Sort-Range-Line-Opacity.png"",""x"":305,""y"":15},{""src"":""Sort-Range-Line-Shade.png"",""x"":922,""y"":18}]"
"","","","Chrome","112.0.0.0","","","","","","","free-sort","57","719199","0.0-57.0","63","1","2024-07-29 18:29:51","b0e02d76891de4098917a4775b26ae70","24.73.113.35","Mozilla/5.0 (X11; Linux x86_64) AppleWebKit/537.36 (KHTML, like Gecko) Chrome/112.0.0.0 Safari/537.36","WebKit","Linux","","https://wvbvqp7xwd.cognition.run/","en-US,en;q=0.9","24213","","","","","","","","","","[{""src"":""Sort-Compare-Scatter-Color.png"",""x"":345,""y"":15},{""src"":""Sort-Compare-Scatter-Mark.png"",""x"":1194,""y"":47},{""src"":""Sort-Compare-Scatter-Opacity.png"",""x"":33,""y"":21},{""src"":""Sort-Compare-Scatter-Text.png"",""x"":902,""y"":45}]","[{""src"":""Sort-Compare-Scatter-Mark.png"",""x"":663,""y"":38},{""src"":""Sort-Compare-Scatter-Opacity.png"",""x"":1041,""y"":50},{""src"":""Sort-Compare-Scatter-Text.png"",""x"":77,""y"":24}]","[{""src"":""Sort-Compare-Scatter-Color.png"",""x"":345,""y"":15},{""src"":""Sort-Compare-Scatter-Mark.png"",""x"":663,""y"":38},{""src"":""Sort-Compare-Scatter-Opacity.png"",""x"":1041,""y"":50},{""src"":""Sort-Compare-Scatter-Text.png"",""x"":77,""y"":24}]"
"","","","Chrome","112.0.0.0","","","","","","","html-button-response","58","742735","0.0-58.0","63","1","2024-07-29 18:29:51","b0e02d76891de4098917a4775b26ae70","24.73.113.35","Mozilla/5.0 (X11; Linux x86_64) AppleWebKit/537.36 (KHTML, like Gecko) Chrome/112.0.0.0 Safari/537.36","WebKit","Linux","","https://wvbvqp7xwd.cognition.run/","en-US,en;q=0.9","23532","0","","","","","","","<p> Thanks for your participation! The prolific code is <b>CVE7UWMV</b></p> Please copy and paste the code before you exit.","","","",""
