"width","height","webaudio","browser","browser_version","mobile","os","fullscreen","vsync_rate","webcam","microphone","trial_type","trial_index","time_elapsed","internal_node_id","run_id","condition","recorded_at","source_code_version","ip","user_agent","device","platform","platform_version","referer","accept_language","rt","response","success","item_width_mm","item_height_mm","item_width_px","px2mm","scale_factor","stimulus","question_order"
"2049","961","true","Chrome","127.0.0.0","false","Windows 10","true","60.53","false","false","browser-check","0","328502","0.0-0.0","647","1","2024-07-29 18:58:20","b0e02d76891de4098917a4775b26ae70","81.161.4.29","Mozilla/5.0 (Windows NT 10.0; Win64; x64) AppleWebKit/537.36 (KHTML, like Gecko) Chrome/127.0.0.0 Safari/537.36","WebKit","Windows","10.0","https://wvbvqp7xwd.cognition.run/","en-US,en;q=0.9","","","","","","","","","",""
"","","","Chrome","127.0.0.0","","","","","","","survey-text","1","377424","0.0-1.0","647","1","2024-07-29 18:58:20","b0e02d76891de4098917a4775b26ae70","81.161.4.29","Mozilla/5.0 (Windows NT 10.0; Win64; x64) AppleWebKit/537.36 (KHTML, like Gecko) Chrome/127.0.0.0 Safari/537.36","WebKit","Windows","10.0","https://wvbvqp7xwd.cognition.run/","en-US,en;q=0.9","48914","{""Q0"":""6682a75cb5361d7c8c9b6eac""}","","","","","","","",""
"","","","Chrome","127.0.0.0","","","","","","","fullscreen","2","381284","0.0-2.0","647","1","2024-07-29 18:58:20","b0e02d76891de4098917a4775b26ae70","81.161.4.29","Mozilla/5.0 (Windows NT 10.0; Win64; x64) AppleWebKit/537.36 (KHTML, like Gecko) Chrome/127.0.0.0 Safari/537.36","WebKit","Windows","10.0","https://wvbvqp7xwd.cognition.run/","en-US,en;q=0.9","2818","","true","","","","","","",""
"","","","Chrome","127.0.0.0","","","","","","","virtual-chinrest","3","395686","0.0-3.0","647","1","2024-07-29 18:58:20","b0e02d76891de4098917a4775b26ae70","81.161.4.29","Mozilla/5.0 (Windows NT 10.0; Win64; x64) AppleWebKit/537.36 (KHTML, like Gecko) Chrome/127.0.0.0 Safari/537.36","WebKit","Windows","10.0","https://wvbvqp7xwd.cognition.run/","en-US,en;q=0.9","14395","","","85.6","53.98","428.082191780822","5","0.584","",""
"","","","Chrome","127.0.0.0","","","","","","","html-button-response","4","400592","0.0-4.0","647","1","2024-07-29 18:58:20","b0e02d76891de4098917a4775b26ae70","81.161.4.29","Mozilla/5.0 (Windows NT 10.0; Win64; x64) AppleWebKit/537.36 (KHTML, like Gecko) Chrome/127.0.0.0 Safari/537.36","WebKit","Windows","10.0","https://wvbvqp7xwd.cognition.run/","en-US,en;q=0.9","4901","0","","","","","","","
    <p>If the measurements were done correctly, the square below should be 10 cm x 10 cm.</p>
    <div style=""background-color: black; width: 500px; height: 500px; margin: 20px auto;""></div>
    ",""
"","","","Chrome","127.0.0.0","","","","","","","survey-multi-choice","5","415132","0.0-5.0","647","1","2024-07-29 18:58:20","b0e02d76891de4098917a4775b26ae70","81.161.4.29","Mozilla/5.0 (Windows NT 10.0; Win64; x64) AppleWebKit/537.36 (KHTML, like Gecko) Chrome/127.0.0.0 Safari/537.36","WebKit","Windows","10.0","https://wvbvqp7xwd.cognition.run/","en-US,en;q=0.9","14537","{""Q0"":""durian""}","","","","","","","","[0]"
"","","","Chrome","127.0.0.0","","","","","","","html-button-response","6","417242","0.0-6.0","647","1","2024-07-29 18:58:20","b0e02d76891de4098917a4775b26ae70","81.161.4.29","Mozilla/5.0 (Windows NT 10.0; Win64; x64) AppleWebKit/537.36 (KHTML, like Gecko) Chrome/127.0.0.0 Safari/537.36","WebKit","Windows","10.0","https://wvbvqp7xwd.cognition.run/","en-US,en;q=0.9","2104","0","","","","","","","<p>Great! You passed the attention check. Now let's begin!</p>",""
"","","","Chrome","127.0.0.0","","","","","","","html-button-response","7","424987","0.0-7.0","647","1","2024-07-29 18:58:20","b0e02d76891de4098917a4775b26ae70","81.161.4.29","Mozilla/5.0 (Windows NT 10.0; Win64; x64) AppleWebKit/537.36 (KHTML, like Gecko) Chrome/127.0.0.0 Safari/537.36","WebKit","Windows","10.0","https://wvbvqp7xwd.cognition.run/","en-US,en;q=0.9","7743","0","","","","","","","<p>In this experiment, you will see 15 dashboards, each for 20 seconds.</p> <p> You need to <b>remember the data fact</b> shown on the dashboard, and try to recall whether it is <b>True or False</b> later.</p>",""
"","","","Chrome","127.0.0.0","","","","","","","html-button-response","8","434209","0.0-8.0","647","1","2024-07-29 18:58:20","b0e02d76891de4098917a4775b26ae70","81.161.4.29","Mozilla/5.0 (Windows NT 10.0; Win64; x64) AppleWebKit/537.36 (KHTML, like Gecko) Chrome/127.0.0.0 Safari/537.36","WebKit","Windows","10.0","https://wvbvqp7xwd.cognition.run/","en-US,en;q=0.9","9219","0","","","","","","","<p>Your response will be collected and evaluated. If any irregularities are found (such as selecting the same answer for all questions or displaying very low overall accuracy), you may not receive payment.</p>",""
"","","","Chrome","127.0.0.0","","","","","","","image-keyboard-response","9","454220","0.0-9.0","647","1","2024-07-29 18:58:20","b0e02d76891de4098917a4775b26ae70","81.161.4.29","Mozilla/5.0 (Windows NT 10.0; Win64; x64) AppleWebKit/537.36 (KHTML, like Gecko) Chrome/127.0.0.0 Safari/537.36","WebKit","Windows","10.0","https://wvbvqp7xwd.cognition.run/","en-US,en;q=0.9","null","null","","","","","","","Filter-Bar-Bound.png",""
"","","","Chrome","127.0.0.0","","","","","","","html-button-response","10","469966","0.0-10.0","647","1","2024-07-29 18:58:20","b0e02d76891de4098917a4775b26ae70","81.161.4.29","Mozilla/5.0 (Windows NT 10.0; Win64; x64) AppleWebKit/537.36 (KHTML, like Gecko) Chrome/127.0.0.0 Safari/537.36","WebKit","Windows","10.0","https://wvbvqp7xwd.cognition.run/","en-US,en;q=0.9","15742","0","","","","","","","<img src=""Filter-Bar-Bound-Blur.png"" style=""max-width:80%; margin:10px;""><br>The number of mobile customers in UK drops below 20 million from 2018 to 2019.",""
"","","","Chrome","127.0.0.0","","","","","","","html-button-response","11","480607","0.0-11.0","647","1","2024-07-29 18:58:20","b0e02d76891de4098917a4775b26ae70","81.161.4.29","Mozilla/5.0 (Windows NT 10.0; Win64; x64) AppleWebKit/537.36 (KHTML, like Gecko) Chrome/127.0.0.0 Safari/537.36","WebKit","Windows","10.0","https://wvbvqp7xwd.cognition.run/","en-US,en;q=0.9","10639","0","","","","","","","<img src=""Filter-Bar-Bound-Blur.png"" style=""max-width:80%; margin:10px;""><br>The number of hospitals in the U.S. has been higher than 3500 thousands since 2014.",""
"","","","Chrome","127.0.0.0","","","","","","","image-keyboard-response","12","500616","0.0-12.0","647","1","2024-07-29 18:58:20","b0e02d76891de4098917a4775b26ae70","81.161.4.29","Mozilla/5.0 (Windows NT 10.0; Win64; x64) AppleWebKit/537.36 (KHTML, like Gecko) Chrome/127.0.0.0 Safari/537.36","WebKit","Windows","10.0","https://wvbvqp7xwd.cognition.run/","en-US,en;q=0.9","null","null","","","","","","","Range-Bar-Shade.png",""
"","","","Chrome","127.0.0.0","","","","","","","html-button-response","13","510452","0.0-13.0","647","1","2024-07-29 18:58:20","b0e02d76891de4098917a4775b26ae70","81.161.4.29","Mozilla/5.0 (Windows NT 10.0; Win64; x64) AppleWebKit/537.36 (KHTML, like Gecko) Chrome/127.0.0.0 Safari/537.36","WebKit","Windows","10.0","https://wvbvqp7xwd.cognition.run/","en-US,en;q=0.9","9833","1","","","","","","","<img src=""Range-Bar-Shade-Blur.png"" style=""max-width:80%; margin:10px;""><br>People from most Asian countries spent 50 to 70 hours on smartphones.",""
"","","","Chrome","127.0.0.0","","","","","","","html-button-response","14","514298","0.0-14.0","647","1","2024-07-29 18:58:20","b0e02d76891de4098917a4775b26ae70","81.161.4.29","Mozilla/5.0 (Windows NT 10.0; Win64; x64) AppleWebKit/537.36 (KHTML, like Gecko) Chrome/127.0.0.0 Safari/537.36","WebKit","Windows","10.0","https://wvbvqp7xwd.cognition.run/","en-US,en;q=0.9","3844","0","","","","","","","<img src=""Range-Bar-Shade-Blur.png"" style=""max-width:80%; margin:10px;""><br>Since 2014, the unit sales are between 2 and 3 million.",""
"","","","Chrome","127.0.0.0","","","","","","","image-keyboard-response","15","534301","0.0-15.0","647","1","2024-07-29 18:58:20","b0e02d76891de4098917a4775b26ae70","81.161.4.29","Mozilla/5.0 (Windows NT 10.0; Win64; x64) AppleWebKit/537.36 (KHTML, like Gecko) Chrome/127.0.0.0 Safari/537.36","WebKit","Windows","10.0","https://wvbvqp7xwd.cognition.run/","en-US,en;q=0.9","null","null","","","","","","","RetrieveValue-Bar-Color.png",""
"","","","Chrome","127.0.0.0","","","","","","","html-button-response","16","542323","0.0-16.0","647","1","2024-07-29 18:58:20","b0e02d76891de4098917a4775b26ae70","81.161.4.29","Mozilla/5.0 (Windows NT 10.0; Win64; x64) AppleWebKit/537.36 (KHTML, like Gecko) Chrome/127.0.0.0 Safari/537.36","WebKit","Windows","10.0","https://wvbvqp7xwd.cognition.run/","en-US,en;q=0.9","8023","1","","","","","","","<img src=""RetrieveValue-Bar-Color-Blur.png"" style=""max-width:80%; margin:10px;""><br>In 2016, the national debt of Ireland reached the highest.",""
"","","","Chrome","127.0.0.0","","","","","","","html-button-response","17","546462","0.0-17.0","647","1","2024-07-29 18:58:20","b0e02d76891de4098917a4775b26ae70","81.161.4.29","Mozilla/5.0 (Windows NT 10.0; Win64; x64) AppleWebKit/537.36 (KHTML, like Gecko) Chrome/127.0.0.0 Safari/537.36","WebKit","Windows","10.0","https://wvbvqp7xwd.cognition.run/","en-US,en;q=0.9","4136","0","","","","","","","<img src=""RetrieveValue-Bar-Color-Blur.png"" style=""max-width:80%; margin:10px;""><br>In 2007, Waste Management operating value is around 13000 million dollars",""
"","","","Chrome","127.0.0.0","","","","","","","image-keyboard-response","18","566561","0.0-18.0","647","1","2024-07-29 18:58:20","b0e02d76891de4098917a4775b26ae70","81.161.4.29","Mozilla/5.0 (Windows NT 10.0; Win64; x64) AppleWebKit/537.36 (KHTML, like Gecko) Chrome/127.0.0.0 Safari/537.36","WebKit","Windows","10.0","https://wvbvqp7xwd.cognition.run/","en-US,en;q=0.9","null","null","","","","","","","Trend-Bar-Mark.png",""
"","","","Chrome","127.0.0.0","","","","","","","html-button-response","19","582675","0.0-19.0","647","1","2024-07-29 18:58:20","b0e02d76891de4098917a4775b26ae70","81.161.4.29","Mozilla/5.0 (Windows NT 10.0; Win64; x64) AppleWebKit/537.36 (KHTML, like Gecko) Chrome/127.0.0.0 Safari/537.36","WebKit","Windows","10.0","https://wvbvqp7xwd.cognition.run/","en-US,en;q=0.9","16109","0","","","","","","","<img src=""Trend-Bar-Mark-Blur.png"" style=""max-width:80%; margin:10px;""><br>The employee number of Brunswick investment banking decreased from 2014 to 2017.",""
"","","","Chrome","127.0.0.0","","","","","","","html-button-response","20","585376","0.0-20.0","647","1","2024-07-29 18:58:20","b0e02d76891de4098917a4775b26ae70","81.161.4.29","Mozilla/5.0 (Windows NT 10.0; Win64; x64) AppleWebKit/537.36 (KHTML, like Gecko) Chrome/127.0.0.0 Safari/537.36","WebKit","Windows","10.0","https://wvbvqp7xwd.cognition.run/","en-US,en;q=0.9","2699","1","","","","","","","<img src=""Trend-Bar-Mark-Blur.png"" style=""max-width:80%; margin:10px;""><br>The alchol consumption in UK has been droping since 2010",""
