"width","height","webaudio","browser","browser_version","mobile","os","fullscreen","vsync_rate","webcam","microphone","trial_type","trial_index","time_elapsed","internal_node_id","run_id","condition","recorded_at","source_code_version","ip","user_agent","device","platform","platform_version","referer","accept_language","rt","response","success","item_width_mm","item_height_mm","item_width_px","px2mm","scale_factor","stimulus","question_order","init_locations","moves","final_locations"
"1600","902","true","Chrome","127.0.0.0","false","Mac OS","true","61.32","true","true","browser-check","0","132910","0.0-0.0","796","1","2024-07-29 19:00:38","b0e02d76891de4098917a4775b26ae70","213.178.140.58","Mozilla/5.0 (Macintosh; Intel Mac OS X 10_15_7) AppleWebKit/537.36 (KHTML, like Gecko) Chrome/127.0.0.0 Safari/537.36","Macintosh","OS X","10_15_7","https://wvbvqp7xwd.cognition.run/","en-GB,en-US;q=0.9,en;q=0.8","","","","","","","","","","","","",""
"","","","Chrome","127.0.0.0","","","","","","","survey-text","1","141021","0.0-1.0","796","1","2024-07-29 19:00:38","b0e02d76891de4098917a4775b26ae70","213.178.140.58","Mozilla/5.0 (Macintosh; Intel Mac OS X 10_15_7) AppleWebKit/537.36 (KHTML, like Gecko) Chrome/127.0.0.0 Safari/537.36","Macintosh","OS X","10_15_7","https://wvbvqp7xwd.cognition.run/","en-GB,en-US;q=0.9,en;q=0.8","8103","{""Q0"":""669003b020f34171d740fe2e""}","","","","","","","","","","",""
"","","","Chrome","127.0.0.0","","","","","","","fullscreen","2","146258","0.0-2.0","796","1","2024-07-29 19:00:38","b0e02d76891de4098917a4775b26ae70","213.178.140.58","Mozilla/5.0 (Macintosh; Intel Mac OS X 10_15_7) AppleWebKit/537.36 (KHTML, like Gecko) Chrome/127.0.0.0 Safari/537.36","Macintosh","OS X","10_15_7","https://wvbvqp7xwd.cognition.run/","en-GB,en-US;q=0.9,en;q=0.8","4230","","true","","","","","","","","","",""
"","","","Chrome","127.0.0.0","","","","","","","virtual-chinrest","3","189927","0.0-3.0","796","1","2024-07-29 19:00:38","b0e02d76891de4098917a4775b26ae70","213.178.140.58","Mozilla/5.0 (Macintosh; Intel Mac OS X 10_15_7) AppleWebKit/537.36 (KHTML, like Gecko) Chrome/127.0.0.0 Safari/537.36","Macintosh","OS X","10_15_7","https://wvbvqp7xwd.cognition.run/","en-GB,en-US;q=0.9,en;q=0.8","43664","","","85.6","53.98","428.5714285714285","5","0.11200000000000002","","","","",""
"","","","Chrome","127.0.0.0","","","","","","","html-button-response","4","314573","0.0-4.0","796","1","2024-07-29 19:00:38","b0e02d76891de4098917a4775b26ae70","213.178.140.58","Mozilla/5.0 (Macintosh; Intel Mac OS X 10_15_7) AppleWebKit/537.36 (KHTML, like Gecko) Chrome/127.0.0.0 Safari/537.36","Macintosh","OS X","10_15_7","https://wvbvqp7xwd.cognition.run/","en-GB,en-US;q=0.9,en;q=0.8","124639","0","","","","","","","
    <p>If the measurements were done correctly, the square below should be 10 cm x 10 cm.</p>
    <div style=""background-color: black; width: 500px; height: 500px; margin: 20px auto;""></div>
    ","","","",""
"","","","Chrome","127.0.0.0","","","","","","","survey-multi-choice","5","341457","0.0-5.0","796","1","2024-07-29 19:00:38","b0e02d76891de4098917a4775b26ae70","213.178.140.58","Mozilla/5.0 (Macintosh; Intel Mac OS X 10_15_7) AppleWebKit/537.36 (KHTML, like Gecko) Chrome/127.0.0.0 Safari/537.36","Macintosh","OS X","10_15_7","https://wvbvqp7xwd.cognition.run/","en-GB,en-US;q=0.9,en;q=0.8","26880","{""Q0"":""durian""}","","","","","","","","[0]","","",""
"","","","Chrome","127.0.0.0","","","","","","","html-button-response","6","346540","0.0-6.0","796","1","2024-07-29 19:00:38","b0e02d76891de4098917a4775b26ae70","213.178.140.58","Mozilla/5.0 (Macintosh; Intel Mac OS X 10_15_7) AppleWebKit/537.36 (KHTML, like Gecko) Chrome/127.0.0.0 Safari/537.36","Macintosh","OS X","10_15_7","https://wvbvqp7xwd.cognition.run/","en-GB,en-US;q=0.9,en;q=0.8","5078","0","","","","","","","<p>Great! You passed the attention check. Now let's begin!</p>","","","",""
"","","","Chrome","127.0.0.0","","","","","","","html-button-response","7","1056486","0.0-7.0","796","1","2024-07-29 19:00:38","b0e02d76891de4098917a4775b26ae70","213.178.140.58","Mozilla/5.0 (Macintosh; Intel Mac OS X 10_15_7) AppleWebKit/537.36 (KHTML, like Gecko) Chrome/127.0.0.0 Safari/537.36","Macintosh","OS X","10_15_7","https://wvbvqp7xwd.cognition.run/","en-GB,en-US;q=0.9,en;q=0.8","699776","0","","","","","","","<p>In this experiment, you will see 15 dashboards, each for 20 seconds.</p> <p> You need to <b>remember the data fact</b> shown on the dashboard, and try to recall whether it is <b>True or False</b> later.</p>","","","",""
"","","","Chrome","127.0.0.0","","","","","","","html-button-response","8","1066955","0.0-8.0","796","1","2024-07-29 19:00:38","b0e02d76891de4098917a4775b26ae70","213.178.140.58","Mozilla/5.0 (Macintosh; Intel Mac OS X 10_15_7) AppleWebKit/537.36 (KHTML, like Gecko) Chrome/127.0.0.0 Safari/537.36","Macintosh","OS X","10_15_7","https://wvbvqp7xwd.cognition.run/","en-GB,en-US;q=0.9,en;q=0.8","10465","0","","","","","","","<p>Your response will be collected and evaluated. If any irregularities are found (such as selecting the same answer for all questions or displaying very low overall accuracy), you may not receive payment.</p>","","","",""
"","","","Chrome","127.0.0.0","","","","","","","image-keyboard-response","9","1086966","0.0-9.0","796","1","2024-07-29 19:00:38","b0e02d76891de4098917a4775b26ae70","213.178.140.58","Mozilla/5.0 (Macintosh; Intel Mac OS X 10_15_7) AppleWebKit/537.36 (KHTML, like Gecko) Chrome/127.0.0.0 Safari/537.36","Macintosh","OS X","10_15_7","https://wvbvqp7xwd.cognition.run/","en-GB,en-US;q=0.9,en;q=0.8","null","null","","","","","","","Filter-Bar-Shade.png","","","",""
"","","","Chrome","127.0.0.0","","","","","","","html-button-response","10","1150344","0.0-10.0","796","1","2024-07-29 19:00:38","b0e02d76891de4098917a4775b26ae70","213.178.140.58","Mozilla/5.0 (Macintosh; Intel Mac OS X 10_15_7) AppleWebKit/537.36 (KHTML, like Gecko) Chrome/127.0.0.0 Safari/537.36","Macintosh","OS X","10_15_7","https://wvbvqp7xwd.cognition.run/","en-GB,en-US;q=0.9,en;q=0.8","63375","1","","","","","","","<img src=""Filter-Bar-Shade-Blur.png"" style=""max-width:80%; margin:10px;""><br>The number of mobile customers in UK drops below 20 million from 2018 to 2019.","","","",""
"","","","Chrome","127.0.0.0","","","","","","","html-button-response","11","1204118","0.0-11.0","796","1","2024-07-29 19:00:38","b0e02d76891de4098917a4775b26ae70","213.178.140.58","Mozilla/5.0 (Macintosh; Intel Mac OS X 10_15_7) AppleWebKit/537.36 (KHTML, like Gecko) Chrome/127.0.0.0 Safari/537.36","Macintosh","OS X","10_15_7","https://wvbvqp7xwd.cognition.run/","en-GB,en-US;q=0.9,en;q=0.8","53770","1","","","","","","","<img src=""Filter-Bar-Shade-Blur.png"" style=""max-width:80%; margin:10px;""><br>The number of hospital in the U.S. has been lower than 3500 thousands since 2003","","","",""
"","","","Chrome","127.0.0.0","","","","","","","image-keyboard-response","12","1224121","0.0-12.0","796","1","2024-07-29 19:00:38","b0e02d76891de4098917a4775b26ae70","213.178.140.58","Mozilla/5.0 (Macintosh; Intel Mac OS X 10_15_7) AppleWebKit/537.36 (KHTML, like Gecko) Chrome/127.0.0.0 Safari/537.36","Macintosh","OS X","10_15_7","https://wvbvqp7xwd.cognition.run/","en-GB,en-US;q=0.9,en;q=0.8","null","null","","","","","","","Range-Bar-Color.png","","","",""
"","","","Chrome","127.0.0.0","","","","","","","html-button-response","13","1290173","0.0-13.0","796","1","2024-07-29 19:00:38","b0e02d76891de4098917a4775b26ae70","213.178.140.58","Mozilla/5.0 (Macintosh; Intel Mac OS X 10_15_7) AppleWebKit/537.36 (KHTML, like Gecko) Chrome/127.0.0.0 Safari/537.36","Macintosh","OS X","10_15_7","https://wvbvqp7xwd.cognition.run/","en-GB,en-US;q=0.9,en;q=0.8","66048","1","","","","","","","<img src=""Range-Bar-Color-Blur.png"" style=""max-width:80%; margin:10px;""><br>People from most Asian countries spent 50 to 70 hours on smartphones.","","","",""
"","","","Chrome","127.0.0.0","","","","","","","html-button-response","14","1311029","0.0-14.0","796","1","2024-07-29 19:00:38","b0e02d76891de4098917a4775b26ae70","213.178.140.58","Mozilla/5.0 (Macintosh; Intel Mac OS X 10_15_7) AppleWebKit/537.36 (KHTML, like Gecko) Chrome/127.0.0.0 Safari/537.36","Macintosh","OS X","10_15_7","https://wvbvqp7xwd.cognition.run/","en-GB,en-US;q=0.9,en;q=0.8","20853","1","","","","","","","<img src=""Range-Bar-Color-Blur.png"" style=""max-width:80%; margin:10px;""><br>Since 2014, the unit sales are between 2 and 3 million.","","","",""
"","","","Chrome","127.0.0.0","","","","","","","image-keyboard-response","15","1331033","0.0-15.0","796","1","2024-07-29 19:00:38","b0e02d76891de4098917a4775b26ae70","213.178.140.58","Mozilla/5.0 (Macintosh; Intel Mac OS X 10_15_7) AppleWebKit/537.36 (KHTML, like Gecko) Chrome/127.0.0.0 Safari/537.36","Macintosh","OS X","10_15_7","https://wvbvqp7xwd.cognition.run/","en-GB,en-US;q=0.9,en;q=0.8","null","null","","","","","","","RetrieveValue-Bar-Text.png","","","",""
"","","","Chrome","127.0.0.0","","","","","","","html-button-response","16","1451556","0.0-16.0","796","1","2024-07-29 19:00:38","b0e02d76891de4098917a4775b26ae70","213.178.140.58","Mozilla/5.0 (Macintosh; Intel Mac OS X 10_15_7) AppleWebKit/537.36 (KHTML, like Gecko) Chrome/127.0.0.0 Safari/537.36","Macintosh","OS X","10_15_7","https://wvbvqp7xwd.cognition.run/","en-GB,en-US;q=0.9,en;q=0.8","120518","1","","","","","","","<img src=""RetrieveValue-Bar-Text-Blur.png"" style=""max-width:80%; margin:10px;""><br>In 2016, the national debt of Ireland reached the highest.","","","",""
"","","","Chrome","127.0.0.0","","","","","","","html-button-response","17","1519562","0.0-17.0","796","1","2024-07-29 19:00:38","b0e02d76891de4098917a4775b26ae70","213.178.140.58","Mozilla/5.0 (Macintosh; Intel Mac OS X 10_15_7) AppleWebKit/537.36 (KHTML, like Gecko) Chrome/127.0.0.0 Safari/537.36","Macintosh","OS X","10_15_7","https://wvbvqp7xwd.cognition.run/","en-GB,en-US;q=0.9,en;q=0.8","68003","1","","","","","","","<img src=""RetrieveValue-Bar-Text-Blur.png"" style=""max-width:80%; margin:10px;""><br>In 2007, Waste Management operating value is around 5000 million dollars.","","","",""
"","","","Chrome","127.0.0.0","","","","","","","image-keyboard-response","18","1539566","0.0-18.0","796","1","2024-07-29 19:00:38","b0e02d76891de4098917a4775b26ae70","213.178.140.58","Mozilla/5.0 (Macintosh; Intel Mac OS X 10_15_7) AppleWebKit/537.36 (KHTML, like Gecko) Chrome/127.0.0.0 Safari/537.36","Macintosh","OS X","10_15_7","https://wvbvqp7xwd.cognition.run/","en-GB,en-US;q=0.9,en;q=0.8","null","null","","","","","","","Trend-Bar-Bound.png","","","",""
"","","","Chrome","127.0.0.0","","","","","","","html-button-response","19","1631356","0.0-19.0","796","1","2024-07-29 19:00:38","b0e02d76891de4098917a4775b26ae70","213.178.140.58","Mozilla/5.0 (Macintosh; Intel Mac OS X 10_15_7) AppleWebKit/537.36 (KHTML, like Gecko) Chrome/127.0.0.0 Safari/537.36","Macintosh","OS X","10_15_7","https://wvbvqp7xwd.cognition.run/","en-GB,en-US;q=0.9,en;q=0.8","91786","0","","","","","","","<img src=""Trend-Bar-Bound-Blur.png"" style=""max-width:80%; margin:10px;""><br>The employee number of Brunswick investment banking increased from 2014 to 2017","","","",""
"","","","Chrome","127.0.0.0","","","","","","","html-button-response","20","1650189","0.0-20.0","796","1","2024-07-29 19:00:38","b0e02d76891de4098917a4775b26ae70","213.178.140.58","Mozilla/5.0 (Macintosh; Intel Mac OS X 10_15_7) AppleWebKit/537.36 (KHTML, like Gecko) Chrome/127.0.0.0 Safari/537.36","Macintosh","OS X","10_15_7","https://wvbvqp7xwd.cognition.run/","en-GB,en-US;q=0.9,en;q=0.8","18831","1","","","","","","","<img src=""Trend-Bar-Bound-Blur.png"" style=""max-width:80%; margin:10px;""><br>The alcohol consumption in UK has been increasing since 2010.","","","",""
"","","","Chrome","127.0.0.0","","","","","","","image-keyboard-response","21","1670596","0.0-21.0","796","1","2024-07-29 19:00:38","b0e02d76891de4098917a4775b26ae70","213.178.140.58","Mozilla/5.0 (Macintosh; Intel Mac OS X 10_15_7) AppleWebKit/537.36 (KHTML, like Gecko) Chrome/127.0.0.0 Safari/537.36","Macintosh","OS X","10_15_7","https://wvbvqp7xwd.cognition.run/","en-GB,en-US;q=0.9,en;q=0.8","null","null","","","","","","","Compare-Bar-Color.png","","","",""
"","","","Chrome","127.0.0.0","","","","","","","html-button-response","22","1698046","0.0-22.0","796","1","2024-07-29 19:00:38","b0e02d76891de4098917a4775b26ae70","213.178.140.58","Mozilla/5.0 (Macintosh; Intel Mac OS X 10_15_7) AppleWebKit/537.36 (KHTML, like Gecko) Chrome/127.0.0.0 Safari/537.36","Macintosh","OS X","10_15_7","https://wvbvqp7xwd.cognition.run/","en-GB,en-US;q=0.9,en;q=0.8","27437","1","","","","","","","<img src=""Compare-Bar-Color-Blur.png"" style=""max-width:80%; margin:10px;""><br>China is spending less energy than the U.S. in 2019.","","","",""
"","","","Chrome","127.0.0.0","","","","","","","html-button-response","23","1719537","0.0-23.0","796","1","2024-07-29 19:00:38","b0e02d76891de4098917a4775b26ae70","213.178.140.58","Mozilla/5.0 (Macintosh; Intel Mac OS X 10_15_7) AppleWebKit/537.36 (KHTML, like Gecko) Chrome/127.0.0.0 Safari/537.36","Macintosh","OS X","10_15_7","https://wvbvqp7xwd.cognition.run/","en-GB,en-US;q=0.9,en;q=0.8","21485","0","","","","","","","<img src=""Compare-Bar-Color-Blur.png"" style=""max-width:80%; margin:10px;""><br>The operating profit of Roche group is lower in 2008 than in 2018","","","",""
"","","","Chrome","127.0.0.0","","","","","","","image-keyboard-response","24","1739546","0.0-24.0","796","1","2024-07-29 19:00:38","b0e02d76891de4098917a4775b26ae70","213.178.140.58","Mozilla/5.0 (Macintosh; Intel Mac OS X 10_15_7) AppleWebKit/537.36 (KHTML, like Gecko) Chrome/127.0.0.0 Safari/537.36","Macintosh","OS X","10_15_7","https://wvbvqp7xwd.cognition.run/","en-GB,en-US;q=0.9,en;q=0.8","null","null","","","","","","","Filter-Line-Color.png","","","",""
"","","","Chrome","127.0.0.0","","","","","","","html-button-response","25","1780598","0.0-25.0","796","1","2024-07-29 19:00:38","b0e02d76891de4098917a4775b26ae70","213.178.140.58","Mozilla/5.0 (Macintosh; Intel Mac OS X 10_15_7) AppleWebKit/537.36 (KHTML, like Gecko) Chrome/127.0.0.0 Safari/537.36","Macintosh","OS X","10_15_7","https://wvbvqp7xwd.cognition.run/","en-GB,en-US;q=0.9,en;q=0.8","41046","1","","","","","","","<img src=""Filter-Line-Color-Blur.png"" style=""max-width:80%; margin:10px;""><br>The number of hospitals in the U.S. has been higher than 3500 thousands since 2014.","","","",""
"","","","Chrome","127.0.0.0","","","","","","","html-button-response","26","1814155","0.0-26.0","796","1","2024-07-29 19:00:38","b0e02d76891de4098917a4775b26ae70","213.178.140.58","Mozilla/5.0 (Macintosh; Intel Mac OS X 10_15_7) AppleWebKit/537.36 (KHTML, like Gecko) Chrome/127.0.0.0 Safari/537.36","Macintosh","OS X","10_15_7","https://wvbvqp7xwd.cognition.run/","en-GB,en-US;q=0.9,en;q=0.8","33554","0","","","","","","","<img src=""Filter-Line-Color-Blur.png"" style=""max-width:80%; margin:10px;""><br>Some penguins are heavier than 5000 g","","","",""
"","","","Chrome","127.0.0.0","","","","","","","image-keyboard-response","27","1834159","0.0-27.0","796","1","2024-07-29 19:00:38","b0e02d76891de4098917a4775b26ae70","213.178.140.58","Mozilla/5.0 (Macintosh; Intel Mac OS X 10_15_7) AppleWebKit/537.36 (KHTML, like Gecko) Chrome/127.0.0.0 Safari/537.36","Macintosh","OS X","10_15_7","https://wvbvqp7xwd.cognition.run/","en-GB,en-US;q=0.9,en;q=0.8","null","null","","","","","","","Range-Line-Color.png","","","",""
"","","","Chrome","127.0.0.0","","","","","","","html-button-response","28","1903597","0.0-28.0","796","1","2024-07-29 19:00:38","b0e02d76891de4098917a4775b26ae70","213.178.140.58","Mozilla/5.0 (Macintosh; Intel Mac OS X 10_15_7) AppleWebKit/537.36 (KHTML, like Gecko) Chrome/127.0.0.0 Safari/537.36","Macintosh","OS X","10_15_7","https://wvbvqp7xwd.cognition.run/","en-GB,en-US;q=0.9,en;q=0.8","69434","0","","","","","","","<img src=""Range-Line-Color-Blur.png"" style=""max-width:80%; margin:10px;""><br>Since 2014, the unit sales is between 0.5 and 1.4 milion","","","",""
"","","","Chrome","127.0.0.0","","","","","","","html-button-response","29","1929629","0.0-29.0","796","1","2024-07-29 19:00:38","b0e02d76891de4098917a4775b26ae70","213.178.140.58","Mozilla/5.0 (Macintosh; Intel Mac OS X 10_15_7) AppleWebKit/537.36 (KHTML, like Gecko) Chrome/127.0.0.0 Safari/537.36","Macintosh","OS X","10_15_7","https://wvbvqp7xwd.cognition.run/","en-GB,en-US;q=0.9,en;q=0.8","26029","0","","","","","","","<img src=""Range-Line-Color-Blur.png"" style=""max-width:80%; margin:10px;""><br>Most countries have less than 50000 income","","","",""
"","","","Chrome","127.0.0.0","","","","","","","image-keyboard-response","30","1949632","0.0-30.0","796","1","2024-07-29 19:00:38","b0e02d76891de4098917a4775b26ae70","213.178.140.58","Mozilla/5.0 (Macintosh; Intel Mac OS X 10_15_7) AppleWebKit/537.36 (KHTML, like Gecko) Chrome/127.0.0.0 Safari/537.36","Macintosh","OS X","10_15_7","https://wvbvqp7xwd.cognition.run/","en-GB,en-US;q=0.9,en;q=0.8","null","null","","","","","","","RetrieveValue-Line-Color.png","","","",""
"","","","Chrome","127.0.0.0","","","","","","","html-button-response","31","1983588","0.0-31.0","796","1","2024-07-29 19:00:38","b0e02d76891de4098917a4775b26ae70","213.178.140.58","Mozilla/5.0 (Macintosh; Intel Mac OS X 10_15_7) AppleWebKit/537.36 (KHTML, like Gecko) Chrome/127.0.0.0 Safari/537.36","Macintosh","OS X","10_15_7","https://wvbvqp7xwd.cognition.run/","en-GB,en-US;q=0.9,en;q=0.8","33953","1","","","","","","","<img src=""RetrieveValue-Line-Color-Blur.png"" style=""max-width:80%; margin:10px;""><br>In 2007, Waste Management operating value is around 5000 million dollars.","","","",""
"","","","Chrome","127.0.0.0","","","","","","","html-button-response","32","2054643","0.0-32.0","796","1","2024-07-29 19:00:38","b0e02d76891de4098917a4775b26ae70","213.178.140.58","Mozilla/5.0 (Macintosh; Intel Mac OS X 10_15_7) AppleWebKit/537.36 (KHTML, like Gecko) Chrome/127.0.0.0 Safari/537.36","Macintosh","OS X","10_15_7","https://wvbvqp7xwd.cognition.run/","en-GB,en-US;q=0.9,en;q=0.8","71052","0","","","","","","","<img src=""RetrieveValue-Line-Color-Blur.png"" style=""max-width:80%; margin:10px;""><br>Car A has about 160 horsepower and runs 15 miles per gallon","","","",""
"","","","Chrome","127.0.0.0","","","","","","","image-keyboard-response","33","2074872","0.0-33.0","796","1","2024-07-29 19:00:38","b0e02d76891de4098917a4775b26ae70","213.178.140.58","Mozilla/5.0 (Macintosh; Intel Mac OS X 10_15_7) AppleWebKit/537.36 (KHTML, like Gecko) Chrome/127.0.0.0 Safari/537.36","Macintosh","OS X","10_15_7","https://wvbvqp7xwd.cognition.run/","en-GB,en-US;q=0.9,en;q=0.8","null","null","","","","","","","Trend-Line-Text.png","","","",""
"","","","Chrome","127.0.0.0","","","","","","","html-button-response","34","2104900","0.0-34.0","796","1","2024-07-29 19:00:38","b0e02d76891de4098917a4775b26ae70","213.178.140.58","Mozilla/5.0 (Macintosh; Intel Mac OS X 10_15_7) AppleWebKit/537.36 (KHTML, like Gecko) Chrome/127.0.0.0 Safari/537.36","Macintosh","OS X","10_15_7","https://wvbvqp7xwd.cognition.run/","en-GB,en-US;q=0.9,en;q=0.8","30024","1","","","","","","","<img src=""Trend-Line-Text-Blur.png"" style=""max-width:80%; margin:10px;""><br>The alcohol consumption in UK has been increasing since 2010.","","","",""
"","","","Chrome","127.0.0.0","","","","","","","html-button-response","35","2184871","0.0-35.0","796","1","2024-07-29 19:00:38","b0e02d76891de4098917a4775b26ae70","213.178.140.58","Mozilla/5.0 (Macintosh; Intel Mac OS X 10_15_7) AppleWebKit/537.36 (KHTML, like Gecko) Chrome/127.0.0.0 Safari/537.36","Macintosh","OS X","10_15_7","https://wvbvqp7xwd.cognition.run/","en-GB,en-US;q=0.9,en;q=0.8","79966","1","","","","","","","<img src=""Trend-Line-Text-Blur.png"" style=""max-width:80%; margin:10px;""><br>The rotten tomatoes rating is related to IMDB rating","","","",""
"","","","Chrome","127.0.0.0","","","","","","","image-keyboard-response","36","2204875","0.0-36.0","796","1","2024-07-29 19:00:38","b0e02d76891de4098917a4775b26ae70","213.178.140.58","Mozilla/5.0 (Macintosh; Intel Mac OS X 10_15_7) AppleWebKit/537.36 (KHTML, like Gecko) Chrome/127.0.0.0 Safari/537.36","Macintosh","OS X","10_15_7","https://wvbvqp7xwd.cognition.run/","en-GB,en-US;q=0.9,en;q=0.8","null","null","","","","","","","Compare-Line-Opacity.png","","","",""
"","","","Chrome","127.0.0.0","","","","","","","html-button-response","37","2292899","0.0-37.0","796","1","2024-07-29 19:00:38","b0e02d76891de4098917a4775b26ae70","213.178.140.58","Mozilla/5.0 (Macintosh; Intel Mac OS X 10_15_7) AppleWebKit/537.36 (KHTML, like Gecko) Chrome/127.0.0.0 Safari/537.36","Macintosh","OS X","10_15_7","https://wvbvqp7xwd.cognition.run/","en-GB,en-US;q=0.9,en;q=0.8","88020","0","","","","","","","<img src=""Compare-Line-Opacity-Blur.png"" style=""max-width:80%; margin:10px;""><br>The operating profit of Roche group is lower in 2008 than in 2018","","","",""
"","","","Chrome","127.0.0.0","","","","","","","html-button-response","38","2380507","0.0-38.0","796","1","2024-07-29 19:00:38","b0e02d76891de4098917a4775b26ae70","213.178.140.58","Mozilla/5.0 (Macintosh; Intel Mac OS X 10_15_7) AppleWebKit/537.36 (KHTML, like Gecko) Chrome/127.0.0.0 Safari/537.36","Macintosh","OS X","10_15_7","https://wvbvqp7xwd.cognition.run/","en-GB,en-US;q=0.9,en;q=0.8","87603","1","","","","","","","<img src=""Compare-Line-Opacity-Blur.png"" style=""max-width:80%; margin:10px;""><br>Penguin A has smaller mass and shorter beak than penguin B.","","","",""
"","","","Chrome","127.0.0.0","","","","","","","image-keyboard-response","39","2400880","0.0-39.0","796","1","2024-07-29 19:00:38","b0e02d76891de4098917a4775b26ae70","213.178.140.58","Mozilla/5.0 (Macintosh; Intel Mac OS X 10_15_7) AppleWebKit/537.36 (KHTML, like Gecko) Chrome/127.0.0.0 Safari/537.36","Macintosh","OS X","10_15_7","https://wvbvqp7xwd.cognition.run/","en-GB,en-US;q=0.9,en;q=0.8","null","null","","","","","","","Filter-Scatter-Color.png","","","",""
"","","","Chrome","127.0.0.0","","","","","","","html-button-response","40","2415309","0.0-40.0","796","1","2024-07-29 19:00:38","b0e02d76891de4098917a4775b26ae70","213.178.140.58","Mozilla/5.0 (Macintosh; Intel Mac OS X 10_15_7) AppleWebKit/537.36 (KHTML, like Gecko) Chrome/127.0.0.0 Safari/537.36","Macintosh","OS X","10_15_7","https://wvbvqp7xwd.cognition.run/","en-GB,en-US;q=0.9,en;q=0.8","14426","0","","","","","","","<img src=""Filter-Scatter-Color-Blur.png"" style=""max-width:80%; margin:10px;""><br>Some penguins are heavier than 1000 g.","","","",""
"","","","Chrome","127.0.0.0","","","","","","","html-button-response","41","2442145","0.0-41.0","796","1","2024-07-29 19:00:38","b0e02d76891de4098917a4775b26ae70","213.178.140.58","Mozilla/5.0 (Macintosh; Intel Mac OS X 10_15_7) AppleWebKit/537.36 (KHTML, like Gecko) Chrome/127.0.0.0 Safari/537.36","Macintosh","OS X","10_15_7","https://wvbvqp7xwd.cognition.run/","en-GB,en-US;q=0.9,en;q=0.8","26834","0","","","","","","","<img src=""Filter-Scatter-Color-Blur.png"" style=""max-width:80%; margin:10px;""><br>The number of mobile customers in UK drops below 30 million from 2018 to 2019.","","","",""
"","","","Chrome","127.0.0.0","","","","","","","image-keyboard-response","42","2462148","0.0-42.0","796","1","2024-07-29 19:00:38","b0e02d76891de4098917a4775b26ae70","213.178.140.58","Mozilla/5.0 (Macintosh; Intel Mac OS X 10_15_7) AppleWebKit/537.36 (KHTML, like Gecko) Chrome/127.0.0.0 Safari/537.36","Macintosh","OS X","10_15_7","https://wvbvqp7xwd.cognition.run/","en-GB,en-US;q=0.9,en;q=0.8","null","null","","","","","","","Range-Scatter-Line.png","","","",""
"","","","Chrome","127.0.0.0","","","","","","","html-button-response","43","2493769","0.0-43.0","796","1","2024-07-29 19:00:38","b0e02d76891de4098917a4775b26ae70","213.178.140.58","Mozilla/5.0 (Macintosh; Intel Mac OS X 10_15_7) AppleWebKit/537.36 (KHTML, like Gecko) Chrome/127.0.0.0 Safari/537.36","Macintosh","OS X","10_15_7","https://wvbvqp7xwd.cognition.run/","en-GB,en-US;q=0.9,en;q=0.8","31617","0","","","","","","","<img src=""Range-Scatter-Line-Blur.png"" style=""max-width:80%; margin:10px;""><br>Most countries have less than 50000 income","","","",""
"","","","Chrome","127.0.0.0","","","","","","","html-button-response","44","2509237","0.0-44.0","796","1","2024-07-29 19:00:38","b0e02d76891de4098917a4775b26ae70","213.178.140.58","Mozilla/5.0 (Macintosh; Intel Mac OS X 10_15_7) AppleWebKit/537.36 (KHTML, like Gecko) Chrome/127.0.0.0 Safari/537.36","Macintosh","OS X","10_15_7","https://wvbvqp7xwd.cognition.run/","en-GB,en-US;q=0.9,en;q=0.8","15466","1","","","","","","","<img src=""Range-Scatter-Line-Blur.png"" style=""max-width:80%; margin:10px;""><br>People from most Asian countries spent 80 to 100 hours on smartphones.","","","",""
"","","","Chrome","127.0.0.0","","","","","","","image-keyboard-response","45","2529240","0.0-45.0","796","1","2024-07-29 19:00:38","b0e02d76891de4098917a4775b26ae70","213.178.140.58","Mozilla/5.0 (Macintosh; Intel Mac OS X 10_15_7) AppleWebKit/537.36 (KHTML, like Gecko) Chrome/127.0.0.0 Safari/537.36","Macintosh","OS X","10_15_7","https://wvbvqp7xwd.cognition.run/","en-GB,en-US;q=0.9,en;q=0.8","null","null","","","","","","","RetrieveValue-Scatter-Color.png","","","",""
"","","","Chrome","127.0.0.0","","","","","","","html-button-response","46","2560623","0.0-46.0","796","1","2024-07-29 19:00:38","b0e02d76891de4098917a4775b26ae70","213.178.140.58","Mozilla/5.0 (Macintosh; Intel Mac OS X 10_15_7) AppleWebKit/537.36 (KHTML, like Gecko) Chrome/127.0.0.0 Safari/537.36","Macintosh","OS X","10_15_7","https://wvbvqp7xwd.cognition.run/","en-GB,en-US;q=0.9,en;q=0.8","31381","1","","","","","","","<img src=""RetrieveValue-Scatter-Color-Blur.png"" style=""max-width:80%; margin:10px;""><br>Car A has about 300 horsepower and runs 30 miles per gallon.","","","",""
"","","","Chrome","127.0.0.0","","","","","","","html-button-response","47","2578778","0.0-47.0","796","1","2024-07-29 19:00:38","b0e02d76891de4098917a4775b26ae70","213.178.140.58","Mozilla/5.0 (Macintosh; Intel Mac OS X 10_15_7) AppleWebKit/537.36 (KHTML, like Gecko) Chrome/127.0.0.0 Safari/537.36","Macintosh","OS X","10_15_7","https://wvbvqp7xwd.cognition.run/","en-GB,en-US;q=0.9,en;q=0.8","18152","0","","","","","","","<img src=""RetrieveValue-Scatter-Color-Blur.png"" style=""max-width:80%; margin:10px;""><br>In 2016, the national debt of Ireland reach the lowest.","","","",""
"","","","Chrome","127.0.0.0","","","","","","","image-keyboard-response","48","2598885","0.0-48.0","796","1","2024-07-29 19:00:38","b0e02d76891de4098917a4775b26ae70","213.178.140.58","Mozilla/5.0 (Macintosh; Intel Mac OS X 10_15_7) AppleWebKit/537.36 (KHTML, like Gecko) Chrome/127.0.0.0 Safari/537.36","Macintosh","OS X","10_15_7","https://wvbvqp7xwd.cognition.run/","en-GB,en-US;q=0.9,en;q=0.8","null","null","","","","","","","Trend-Scatter-Opacity.png","","","",""
"","","","Chrome","127.0.0.0","","","","","","","html-button-response","49","2641983","0.0-49.0","796","1","2024-07-29 19:00:38","b0e02d76891de4098917a4775b26ae70","213.178.140.58","Mozilla/5.0 (Macintosh; Intel Mac OS X 10_15_7) AppleWebKit/537.36 (KHTML, like Gecko) Chrome/127.0.0.0 Safari/537.36","Macintosh","OS X","10_15_7","https://wvbvqp7xwd.cognition.run/","en-GB,en-US;q=0.9,en;q=0.8","43094","0","","","","","","","<img src=""Trend-Scatter-Opacity-Blur.png"" style=""max-width:80%; margin:10px;""><br>The rotten tomatoes rating is related to IMDB rating","","","",""
"","","","Chrome","127.0.0.0","","","","","","","html-button-response","50","2665736","0.0-50.0","796","1","2024-07-29 19:00:38","b0e02d76891de4098917a4775b26ae70","213.178.140.58","Mozilla/5.0 (Macintosh; Intel Mac OS X 10_15_7) AppleWebKit/537.36 (KHTML, like Gecko) Chrome/127.0.0.0 Safari/537.36","Macintosh","OS X","10_15_7","https://wvbvqp7xwd.cognition.run/","en-GB,en-US;q=0.9,en;q=0.8","23750","1","","","","","","","<img src=""Trend-Scatter-Opacity-Blur.png"" style=""max-width:80%; margin:10px;""><br>The employee number of Brunswick investment banking decreased from 2014 to 2017.","","","",""
"","","","Chrome","127.0.0.0","","","","","","","image-keyboard-response","51","2685747","0.0-51.0","796","1","2024-07-29 19:00:38","b0e02d76891de4098917a4775b26ae70","213.178.140.58","Mozilla/5.0 (Macintosh; Intel Mac OS X 10_15_7) AppleWebKit/537.36 (KHTML, like Gecko) Chrome/127.0.0.0 Safari/537.36","Macintosh","OS X","10_15_7","https://wvbvqp7xwd.cognition.run/","en-GB,en-US;q=0.9,en;q=0.8","null","null","","","","","","","Compare-Scatter-Opacity.png","","","",""
"","","","Chrome","127.0.0.0","","","","","","","html-button-response","52","2721456","0.0-52.0","796","1","2024-07-29 19:00:38","b0e02d76891de4098917a4775b26ae70","213.178.140.58","Mozilla/5.0 (Macintosh; Intel Mac OS X 10_15_7) AppleWebKit/537.36 (KHTML, like Gecko) Chrome/127.0.0.0 Safari/537.36","Macintosh","OS X","10_15_7","https://wvbvqp7xwd.cognition.run/","en-GB,en-US;q=0.9,en;q=0.8","35696","0","","","","","","","<img src=""Compare-Scatter-Opacity-Blur.png"" style=""max-width:80%; margin:10px;""><br>Penguin A has larger mass and longer beak than penguin B","","","",""
"","","","Chrome","127.0.0.0","","","","","","","html-button-response","53","2734607","0.0-53.0","796","1","2024-07-29 19:00:38","b0e02d76891de4098917a4775b26ae70","213.178.140.58","Mozilla/5.0 (Macintosh; Intel Mac OS X 10_15_7) AppleWebKit/537.36 (KHTML, like Gecko) Chrome/127.0.0.0 Safari/537.36","Macintosh","OS X","10_15_7","https://wvbvqp7xwd.cognition.run/","en-GB,en-US;q=0.9,en;q=0.8","13148","1","","","","","","","<img src=""Compare-Scatter-Opacity-Blur.png"" style=""max-width:80%; margin:10px;""><br>China is spending less energy than the U.S. in 2019.","","","",""
"","","","Chrome","127.0.0.0","","","","","","","survey-multi-choice","54","2744342","0.0-54.0","796","1","2024-07-29 19:00:38","b0e02d76891de4098917a4775b26ae70","213.178.140.58","Mozilla/5.0 (Macintosh; Intel Mac OS X 10_15_7) AppleWebKit/537.36 (KHTML, like Gecko) Chrome/127.0.0.0 Safari/537.36","Macintosh","OS X","10_15_7","https://wvbvqp7xwd.cognition.run/","en-GB,en-US;q=0.9,en;q=0.8","9730","{""Q0"":""Male""}","","","","","","","","[0]","","",""
"","","","Chrome","127.0.0.0","","","","","","","free-sort","55","2904923","0.0-55.0","796","1","2024-07-29 19:00:38","b0e02d76891de4098917a4775b26ae70","213.178.140.58","Mozilla/5.0 (Macintosh; Intel Mac OS X 10_15_7) AppleWebKit/537.36 (KHTML, like Gecko) Chrome/127.0.0.0 Safari/537.36","Macintosh","OS X","10_15_7","https://wvbvqp7xwd.cognition.run/","en-GB,en-US;q=0.9,en;q=0.8","160571","","","","","","","","","","[{""src"":""Sort-Compare-Bar-Color.png"",""x"":514,""y"":35},{""src"":""Sort-Compare-Bar-Mark.png"",""x"":522,""y"":13},{""src"":""Sort-Compare-Bar-Opacity.png"",""x"":1031,""y"":21},{""src"":""Sort-Compare-Bar-Text.png"",""x"":77,""y"":24}]","[{""src"":""Sort-Compare-Bar-Mark.png"",""x"":530,""y"":44},{""src"":""Sort-Compare-Bar-Mark.png"",""x"":521,""y"":71},{""src"":""Sort-Compare-Bar-Text.png"",""x"":162,""y"":51},{""src"":""Sort-Compare-Bar-Text.png"",""x"":244,""y"":81},{""src"":""Sort-Compare-Bar-Text.png"",""x"":357,""y"":97},{""src"":""Sort-Compare-Bar-Text.png"",""x"":411,""y"":115},{""src"":""Sort-Compare-Bar-Text.png"",""x"":511,""y"":115},{""src"":""Sort-Compare-Bar-Text.png"",""x"":580,""y"":115},{""src"":""Sort-Compare-Bar-Text.png"",""x"":630,""y"":115},{""src"":""Sort-Compare-Bar-Text.png"",""x"":658,""y"":115},{""src"":""Sort-Compare-Bar-Text.png"",""x"":682,""y"":115},{""src"":""Sort-Compare-Bar-Text.png"",""x"":754,""y"":115},{""src"":""Sort-Compare-Bar-Text.png"",""x"":789,""y"":103},{""src"":""Sort-Compare-Bar-Text.png"",""x"":791,""y"":115},{""src"":""Sort-Compare-Bar-Text.png"",""x"":791,""y"":115},{""src"":""Sort-Compare-Bar-Text.png"",""x"":795,""y"":115},{""src"":""Sort-Compare-Bar-Text.png"",""x"":798,""y"":103},{""src"":""Sort-Compare-Bar-Text.png"",""x"":800,""y"":53},{""src"":""Sort-Compare-Bar-Mark.png"",""x"":324,""y"":57},{""src"":""Sort-Compare-Bar-Mark.png"",""x"":109,""y"":69},{""src"":""Sort-Compare-Bar-Color.png"",""x"":522,""y"":66},{""src"":""Sort-Compare-Bar-Color.png"",""x"":635,""y"":92},{""src"":""Sort-Compare-Bar-Color.png"",""x"":705,""y"":102},{""src"":""Sort-Compare-Bar-Opacity.png"",""x"":958,""y"":46},{""src"":""Sort-Compare-Bar-Text.png"",""x"":538,""y"":59},{""src"":""Sort-Compare-Bar-Text.png"",""x"":394,""y"":60},{""src"":""Sort-Compare-Bar-Text.png"",""x"":394,""y"":60},{""src"":""Sort-Compare-Bar-Text.png"",""x"":358,""y"":80},{""src"":""Sort-Compare-Bar-Text.png"",""x"":353,""y"":58},{""src"":""Sort-Compare-Bar-Color.png"",""x"":682,""y"":56},{""src"":""Sort-Compare-Bar-Opacity.png"",""x"":985,""y"":58},{""src"":""Sort-Compare-Bar-Color.png"",""x"":684,""y"":27},{""src"":""Sort-Compare-Bar-Opacity.png"",""x"":1015,""y"":45},{""src"":""Sort-Compare-Bar-Text.png"",""x"":348,""y"":52}]","[{""src"":""Sort-Compare-Bar-Color.png"",""x"":683,""y"":27},{""src"":""Sort-Compare-Bar-Mark.png"",""x"":109,""y"":69},{""src"":""Sort-Compare-Bar-Opacity.png"",""x"":1015,""y"":45},{""src"":""Sort-Compare-Bar-Text.png"",""x"":348,""y"":52}]"
"","","","Chrome","127.0.0.0","","","","","","","free-sort","56","3036221","0.0-56.0","796","1","2024-07-29 19:00:38","b0e02d76891de4098917a4775b26ae70","213.178.140.58","Mozilla/5.0 (Macintosh; Intel Mac OS X 10_15_7) AppleWebKit/537.36 (KHTML, like Gecko) Chrome/127.0.0.0 Safari/537.36","Macintosh","OS X","10_15_7","https://wvbvqp7xwd.cognition.run/","en-GB,en-US;q=0.9,en;q=0.8","131292","","","","","","","","","","[{""src"":""Sort-Trend-Line-Color.png"",""x"":884,""y"":14},{""src"":""Sort-Trend-Line-Line.png"",""x"":397,""y"":9},{""src"":""Sort-Trend-Line-Mark.png"",""x"":1117,""y"":21},{""src"":""Sort-Trend-Line-Opacity.png"",""x"":763,""y"":20},{""src"":""Sort-Trend-Line-Text.png"",""x"":590,""y"":0},{""src"":""Sort-Trend-Line-Bound.png"",""x"":933,""y"":9},{""src"":""Sort-Trend-Line-Shade.png"",""x"":563,""y"":5}]","[{""src"":""Sort-Trend-Line-Line.png"",""x"":327,""y"":8},{""src"":""Sort-Trend-Line-Shade.png"",""x"":550,""y"":11},{""src"":""Sort-Trend-Line-Line.png"",""x"":432,""y"":16},{""src"":""Sort-Trend-Line-Line.png"",""x"":528,""y"":21},{""src"":""Sort-Trend-Line-Shade.png"",""x"":506,""y"":15},{""src"":""Sort-Trend-Line-Shade.png"",""x"":475,""y"":20},{""src"":""Sort-Trend-Line-Shade.png"",""x"":457,""y"":25},{""src"":""Sort-Trend-Line-Shade.png"",""x"":436,""y"":30},{""src"":""Sort-Trend-Line-Shade.png"",""x"":411,""y"":36},{""src"":""Sort-Trend-Line-Shade.png"",""x"":375,""y"":37},{""src"":""Sort-Trend-Line-Shade.png"",""x"":342,""y"":42},{""src"":""Sort-Trend-Line-Shade.png"",""x"":322,""y"":46},{""src"":""Sort-Trend-Line-Shade.png"",""x"":305,""y"":47},{""src"":""Sort-Trend-Line-Shade.png"",""x"":283,""y"":51},{""src"":""Sort-Trend-Line-Shade.png"",""x"":269,""y"":51},{""src"":""Sort-Trend-Line-Shade.png"",""x"":217,""y"":52},{""src"":""Sort-Trend-Line-Shade.png"",""x"":157,""y"":52},{""src"":""Sort-Trend-Line-Shade.png"",""x"":103,""y"":49},{""src"":""Sort-Trend-Line-Mark.png"",""x"":1159,""y"":27},{""src"":""Sort-Trend-Line-Text.png"",""x"":511,""y"":16},{""src"":""Sort-Trend-Line-Text.png"",""x"":419,""y"":30},{""src"":""Sort-Trend-Line-Text.png"",""x"":358,""y"":35},{""src"":""Sort-Trend-Line-Text.png"",""x"":342,""y"":43},{""src"":""Sort-Trend-Line-Line.png"",""x"":660,""y"":28},{""src"":""Sort-Trend-Line-Opacity.png"",""x"":674,""y"":21},{""src"":""Sort-Trend-Line-Opacity.png"",""x"":614,""y"":26},{""src"":""Sort-Trend-Line-Opacity.png"",""x"":584,""y"":33},{""src"":""Sort-Trend-Line-Opacity.png"",""x"":555,""y"":41},{""src"":""Sort-Trend-Line-Line.png"",""x"":772,""y"":85},{""src"":""Sort-Trend-Line-Bound.png"",""x"":749,""y"":19},{""src"":""Sort-Trend-Line-Bound.png"",""x"":700,""y"":25},{""src"":""Sort-Trend-Line-Line.png"",""x"":849,""y"":85},{""src"":""Sort-Trend-Line-Line.png"",""x"":929,""y"":73},{""src"":""Sort-Trend-Line-Line.png"",""x"":976,""y"":34},{""src"":""Sort-Trend-Line-Color.png"",""x"":864,""y"":23},{""src"":""Sort-Trend-Line-Line.png"",""x"":1000,""y"":31},{""src"":""Sort-Trend-Line-Mark.png"",""x"":1174,""y"":33},{""src"":""Sort-Trend-Line-Line.png"",""x"":1016,""y"":39},{""src"":""Sort-Trend-Line-Opacity.png"",""x"":540,""y"":48},{""src"":""Sort-Trend-Line-Text.png"",""x"":284,""y"":48},{""src"":""Sort-Trend-Line-Opacity.png"",""x"":439,""y"":51},{""src"":""Sort-Trend-Line-Bound.png"",""x"":664,""y"":43}]","[{""src"":""Sort-Trend-Line-Color.png"",""x"":863,""y"":22},{""src"":""Sort-Trend-Line-Line.png"",""x"":1016,""y"":38},{""src"":""Sort-Trend-Line-Mark.png"",""x"":1174,""y"":33},{""src"":""Sort-Trend-Line-Opacity.png"",""x"":438,""y"":51},{""src"":""Sort-Trend-Line-Text.png"",""x"":284,""y"":47},{""src"":""Sort-Trend-Line-Bound.png"",""x"":664,""y"":42},{""src"":""Sort-Trend-Line-Shade.png"",""x"":103,""y"":49}]"
"","","","Chrome","127.0.0.0","","","","","","","free-sort","57","3123444","0.0-57.0","796","1","2024-07-29 19:00:38","b0e02d76891de4098917a4775b26ae70","213.178.140.58","Mozilla/5.0 (Macintosh; Intel Mac OS X 10_15_7) AppleWebKit/537.36 (KHTML, like Gecko) Chrome/127.0.0.0 Safari/537.36","Macintosh","OS X","10_15_7","https://wvbvqp7xwd.cognition.run/","en-GB,en-US;q=0.9,en;q=0.8","87218","","","","","","","","","","[{""src"":""Sort-Filter-Scatter-Bound.png"",""x"":867,""y"":17},{""src"":""Sort-Filter-Scatter-Color.png"",""x"":427,""y"":40},{""src"":""Sort-Filter-Scatter-Line.png"",""x"":899,""y"":33},{""src"":""Sort-Filter-Scatter-Opacity.png"",""x"":1120,""y"":40},{""src"":""Sort-Filter-Scatter-Shade.png"",""x"":667,""y"":5}]","[{""src"":""Sort-Filter-Scatter-Shade.png"",""x"":782,""y"":4},{""src"":""Sort-Filter-Scatter-Opacity.png"",""x"":976,""y"":30},{""src"":""Sort-Filter-Scatter-Shade.png"",""x"":886,""y"":15},{""src"":""Sort-Filter-Scatter-Shade.png"",""x"":974,""y"":9},{""src"":""Sort-Filter-Scatter-Shade.png"",""x"":1048,""y"":10},{""src"":""Sort-Filter-Scatter-Shade.png"",""x"":1112,""y"":19},{""src"":""Sort-Filter-Scatter-Bound.png"",""x"":776,""y"":34},{""src"":""Sort-Filter-Scatter-Color.png"",""x"":474,""y"":42},{""src"":""Sort-Filter-Scatter-Line.png"",""x"":719,""y"":24},{""src"":""Sort-Filter-Scatter-Line.png"",""x"":546,""y"":15},{""src"":""Sort-Filter-Scatter-Line.png"",""x"":399,""y"":15},{""src"":""Sort-Filter-Scatter-Line.png"",""x"":311,""y"":11},{""src"":""Sort-Filter-Scatter-Line.png"",""x"":224,""y"":9},{""src"":""Sort-Filter-Scatter-Line.png"",""x"":163,""y"":17},{""src"":""Sort-Filter-Scatter-Line.png"",""x"":96,""y"":20},{""src"":""Sort-Filter-Scatter-Color.png"",""x"":498,""y"":42},{""src"":""Sort-Filter-Scatter-Bound.png"",""x"":690,""y"":37},{""src"":""Sort-Filter-Scatter-Color.png"",""x"":397,""y"":28},{""src"":""Sort-Filter-Scatter-Color.png"",""x"":351,""y"":22},{""src"":""Sort-Filter-Scatter-Color.png"",""x"":316,""y"":18},{""src"":""Sort-Filter-Scatter-Bound.png"",""x"":620,""y"":31},{""src"":""Sort-Filter-Scatter-Bound.png"",""x"":571,""y"":25},{""src"":""Sort-Filter-Scatter-Bound.png"",""x"":552,""y"":22},{""src"":""Sort-Filter-Scatter-Opacity.png"",""x"":904,""y"":30},{""src"":""Sort-Filter-Scatter-Opacity.png"",""x"":836,""y"":27}]","[{""src"":""Sort-Filter-Scatter-Bound.png"",""x"":551,""y"":22},{""src"":""Sort-Filter-Scatter-Color.png"",""x"":315,""y"":18},{""src"":""Sort-Filter-Scatter-Line.png"",""x"":96,""y"":20},{""src"":""Sort-Filter-Scatter-Opacity.png"",""x"":836,""y"":26},{""src"":""Sort-Filter-Scatter-Shade.png"",""x"":1111,""y"":18}]"
"","","","Chrome","127.0.0.0","","","","","","","html-button-response","58","3132379","0.0-58.0","796","1","2024-07-29 19:00:38","b0e02d76891de4098917a4775b26ae70","213.178.140.58","Mozilla/5.0 (Macintosh; Intel Mac OS X 10_15_7) AppleWebKit/537.36 (KHTML, like Gecko) Chrome/127.0.0.0 Safari/537.36","Macintosh","OS X","10_15_7","https://wvbvqp7xwd.cognition.run/","en-GB,en-US;q=0.9,en;q=0.8","8933","0","","","","","","","<p> Thanks for your participation! The prolific code is <b>CVE7UWMV</b></p> Please copy and paste the code before you exit.","","","",""
