"width","height","webaudio","browser","browser_version","mobile","os","fullscreen","vsync_rate","webcam","microphone","trial_type","trial_index","time_elapsed","internal_node_id","run_id","condition","recorded_at","source_code_version","ip","user_agent","device","platform","platform_version","referer","accept_language","rt","response","success","item_width_mm","item_height_mm","item_width_px","px2mm","scale_factor","stimulus","question_order","init_locations","moves","final_locations"
"1837","999","true","Chrome","127.0.0.0","false","Mac OS","true","61.66","true","true","browser-check","0","25991","0.0-0.0","97","1","2024-07-29 18:33:28","b0e02d76891de4098917a4775b26ae70","38.124.64.204","Mozilla/5.0 (Macintosh; Intel Mac OS X 10_15_7) AppleWebKit/537.36 (KHTML, like Gecko) Chrome/127.0.0.0 Safari/537.36","Macintosh","OS X","10_15_7","https://wvbvqp7xwd.cognition.run/","en-US,en;q=0.9","","","","","","","","","","","","",""
"","","","Chrome","127.0.0.0","","","","","","","survey-text","1","29244","0.0-1.0","97","1","2024-07-29 18:33:28","b0e02d76891de4098917a4775b26ae70","38.124.64.204","Mozilla/5.0 (Macintosh; Intel Mac OS X 10_15_7) AppleWebKit/537.36 (KHTML, like Gecko) Chrome/127.0.0.0 Safari/537.36","Macintosh","OS X","10_15_7","https://wvbvqp7xwd.cognition.run/","en-US,en;q=0.9","3246","{""Q0"":""61008fcf02254d14942c9a64""}","","","","","","","","","","",""
"","","","Chrome","127.0.0.0","","","","","","","fullscreen","2","32912","0.0-2.0","97","1","2024-07-29 18:33:28","b0e02d76891de4098917a4775b26ae70","38.124.64.204","Mozilla/5.0 (Macintosh; Intel Mac OS X 10_15_7) AppleWebKit/537.36 (KHTML, like Gecko) Chrome/127.0.0.0 Safari/537.36","Macintosh","OS X","10_15_7","https://wvbvqp7xwd.cognition.run/","en-US,en;q=0.9","2663","","true","","","","","","","","","",""
"","","","Chrome","127.0.0.0","","","","","","","virtual-chinrest","3","51052","0.0-3.0","97","1","2024-07-29 18:33:28","b0e02d76891de4098917a4775b26ae70","38.124.64.204","Mozilla/5.0 (Macintosh; Intel Mac OS X 10_15_7) AppleWebKit/537.36 (KHTML, like Gecko) Chrome/127.0.0.0 Safari/537.36","Macintosh","OS X","10_15_7","https://wvbvqp7xwd.cognition.run/","en-US,en;q=0.9","18135","","","85.6","53.98","427.7879341864717","5","1.0939999999999999","","","","",""
"","","","Chrome","127.0.0.0","","","","","","","html-button-response","4","54505","0.0-4.0","97","1","2024-07-29 18:33:28","b0e02d76891de4098917a4775b26ae70","38.124.64.204","Mozilla/5.0 (Macintosh; Intel Mac OS X 10_15_7) AppleWebKit/537.36 (KHTML, like Gecko) Chrome/127.0.0.0 Safari/537.36","Macintosh","OS X","10_15_7","https://wvbvqp7xwd.cognition.run/","en-US,en;q=0.9","3449","0","","","","","","","
    <p>If the measurements were done correctly, the square below should be 10 cm x 10 cm.</p>
    <div style=""background-color: black; width: 500px; height: 500px; margin: 20px auto;""></div>
    ","","","",""
"","","","Chrome","127.0.0.0","","","","","","","survey-multi-choice","5","57685","0.0-5.0","97","1","2024-07-29 18:33:28","b0e02d76891de4098917a4775b26ae70","38.124.64.204","Mozilla/5.0 (Macintosh; Intel Mac OS X 10_15_7) AppleWebKit/537.36 (KHTML, like Gecko) Chrome/127.0.0.0 Safari/537.36","Macintosh","OS X","10_15_7","https://wvbvqp7xwd.cognition.run/","en-US,en;q=0.9","3177","{""Q0"":""durian""}","","","","","","","","[0]","","",""
"","","","Chrome","127.0.0.0","","","","","","","html-button-response","6","67108","0.0-6.0","97","1","2024-07-29 18:33:28","b0e02d76891de4098917a4775b26ae70","38.124.64.204","Mozilla/5.0 (Macintosh; Intel Mac OS X 10_15_7) AppleWebKit/537.36 (KHTML, like Gecko) Chrome/127.0.0.0 Safari/537.36","Macintosh","OS X","10_15_7","https://wvbvqp7xwd.cognition.run/","en-US,en;q=0.9","9418","0","","","","","","","<p>Great! You passed the attention check. Now let's begin!</p>","","","",""
"","","","Chrome","127.0.0.0","","","","","","","html-button-response","7","71719","0.0-7.0","97","1","2024-07-29 18:33:28","b0e02d76891de4098917a4775b26ae70","38.124.64.204","Mozilla/5.0 (Macintosh; Intel Mac OS X 10_15_7) AppleWebKit/537.36 (KHTML, like Gecko) Chrome/127.0.0.0 Safari/537.36","Macintosh","OS X","10_15_7","https://wvbvqp7xwd.cognition.run/","en-US,en;q=0.9","4610","0","","","","","","","<p>In this experiment, you will see 15 dashboards, each for 20 seconds.</p> <p> You need to <b>remember the data fact</b> shown on the dashboard, and try to recall whether it is <b>True or False</b> later.</p>","","","",""
"","","","Chrome","127.0.0.0","","","","","","","html-button-response","8","76595","0.0-8.0","97","1","2024-07-29 18:33:28","b0e02d76891de4098917a4775b26ae70","38.124.64.204","Mozilla/5.0 (Macintosh; Intel Mac OS X 10_15_7) AppleWebKit/537.36 (KHTML, like Gecko) Chrome/127.0.0.0 Safari/537.36","Macintosh","OS X","10_15_7","https://wvbvqp7xwd.cognition.run/","en-US,en;q=0.9","4873","0","","","","","","","<p>Your response will be collected and evaluated. If any irregularities are found (such as selecting the same answer for all questions or displaying very low overall accuracy), you may not receive payment.</p>","","","",""
"","","","Chrome","127.0.0.0","","","","","","","image-keyboard-response","9","96602","0.0-9.0","97","1","2024-07-29 18:33:28","b0e02d76891de4098917a4775b26ae70","38.124.64.204","Mozilla/5.0 (Macintosh; Intel Mac OS X 10_15_7) AppleWebKit/537.36 (KHTML, like Gecko) Chrome/127.0.0.0 Safari/537.36","Macintosh","OS X","10_15_7","https://wvbvqp7xwd.cognition.run/","en-US,en;q=0.9","null","null","","","","","","","Filter-Bar-Opacity.png","","","",""
"","","","Chrome","127.0.0.0","","","","","","","html-button-response","10","106483","0.0-10.0","97","1","2024-07-29 18:33:28","b0e02d76891de4098917a4775b26ae70","38.124.64.204","Mozilla/5.0 (Macintosh; Intel Mac OS X 10_15_7) AppleWebKit/537.36 (KHTML, like Gecko) Chrome/127.0.0.0 Safari/537.36","Macintosh","OS X","10_15_7","https://wvbvqp7xwd.cognition.run/","en-US,en;q=0.9","9878","0","","","","","","","<img src=""Filter-Bar-Opacity-Blur.png"" style=""max-width:80%; margin:10px;""><br>The number of mobile customers in UK drops below 30 million from 2018 to 2019.","","","",""
"","","","Chrome","127.0.0.0","","","","","","","html-button-response","11","109969","0.0-11.0","97","1","2024-07-29 18:33:28","b0e02d76891de4098917a4775b26ae70","38.124.64.204","Mozilla/5.0 (Macintosh; Intel Mac OS X 10_15_7) AppleWebKit/537.36 (KHTML, like Gecko) Chrome/127.0.0.0 Safari/537.36","Macintosh","OS X","10_15_7","https://wvbvqp7xwd.cognition.run/","en-US,en;q=0.9","3483","0","","","","","","","<img src=""Filter-Bar-Opacity-Blur.png"" style=""max-width:80%; margin:10px;""><br>The number of hospital in the U.S. has been lower than 3500 thousands since 2003","","","",""
"","","","Chrome","127.0.0.0","","","","","","","image-keyboard-response","12","129973","0.0-12.0","97","1","2024-07-29 18:33:28","b0e02d76891de4098917a4775b26ae70","38.124.64.204","Mozilla/5.0 (Macintosh; Intel Mac OS X 10_15_7) AppleWebKit/537.36 (KHTML, like Gecko) Chrome/127.0.0.0 Safari/537.36","Macintosh","OS X","10_15_7","https://wvbvqp7xwd.cognition.run/","en-US,en;q=0.9","null","null","","","","","","","Range-Bar-Color.png","","","",""
"","","","Chrome","127.0.0.0","","","","","","","html-button-response","13","137439","0.0-13.0","97","1","2024-07-29 18:33:28","b0e02d76891de4098917a4775b26ae70","38.124.64.204","Mozilla/5.0 (Macintosh; Intel Mac OS X 10_15_7) AppleWebKit/537.36 (KHTML, like Gecko) Chrome/127.0.0.0 Safari/537.36","Macintosh","OS X","10_15_7","https://wvbvqp7xwd.cognition.run/","en-US,en;q=0.9","7462","0","","","","","","","<img src=""Range-Bar-Color-Blur.png"" style=""max-width:80%; margin:10px;""><br>People from most Asian countries spent 50 to 70 hours on smartphones.","","","",""
"","","","Chrome","127.0.0.0","","","","","","","html-button-response","14","140186","0.0-14.0","97","1","2024-07-29 18:33:28","b0e02d76891de4098917a4775b26ae70","38.124.64.204","Mozilla/5.0 (Macintosh; Intel Mac OS X 10_15_7) AppleWebKit/537.36 (KHTML, like Gecko) Chrome/127.0.0.0 Safari/537.36","Macintosh","OS X","10_15_7","https://wvbvqp7xwd.cognition.run/","en-US,en;q=0.9","2744","1","","","","","","","<img src=""Range-Bar-Color-Blur.png"" style=""max-width:80%; margin:10px;""><br>Since 2014, the unit sales are between 2 and 3 million.","","","",""
"","","","Chrome","127.0.0.0","","","","","","","image-keyboard-response","15","160190","0.0-15.0","97","1","2024-07-29 18:33:28","b0e02d76891de4098917a4775b26ae70","38.124.64.204","Mozilla/5.0 (Macintosh; Intel Mac OS X 10_15_7) AppleWebKit/537.36 (KHTML, like Gecko) Chrome/127.0.0.0 Safari/537.36","Macintosh","OS X","10_15_7","https://wvbvqp7xwd.cognition.run/","en-US,en;q=0.9","null","null","","","","","","","RetrieveValue-Bar-Mark.png","","","",""
"","","","Chrome","127.0.0.0","","","","","","","html-button-response","16","164451","0.0-16.0","97","1","2024-07-29 18:33:28","b0e02d76891de4098917a4775b26ae70","38.124.64.204","Mozilla/5.0 (Macintosh; Intel Mac OS X 10_15_7) AppleWebKit/537.36 (KHTML, like Gecko) Chrome/127.0.0.0 Safari/537.36","Macintosh","OS X","10_15_7","https://wvbvqp7xwd.cognition.run/","en-US,en;q=0.9","4258","1","","","","","","","<img src=""RetrieveValue-Bar-Mark-Blur.png"" style=""max-width:80%; margin:10px;""><br>In 2016, the national debt of Ireland reached the highest.","","","",""
"","","","Chrome","127.0.0.0","","","","","","","html-button-response","17","166064","0.0-17.0","97","1","2024-07-29 18:33:28","b0e02d76891de4098917a4775b26ae70","38.124.64.204","Mozilla/5.0 (Macintosh; Intel Mac OS X 10_15_7) AppleWebKit/537.36 (KHTML, like Gecko) Chrome/127.0.0.0 Safari/537.36","Macintosh","OS X","10_15_7","https://wvbvqp7xwd.cognition.run/","en-US,en;q=0.9","1611","0","","","","","","","<img src=""RetrieveValue-Bar-Mark-Blur.png"" style=""max-width:80%; margin:10px;""><br>In 2007, Waste Management operating value is around 5000 million dollars.","","","",""
"","","","Chrome","127.0.0.0","","","","","","","image-keyboard-response","18","186069","0.0-18.0","97","1","2024-07-29 18:33:28","b0e02d76891de4098917a4775b26ae70","38.124.64.204","Mozilla/5.0 (Macintosh; Intel Mac OS X 10_15_7) AppleWebKit/537.36 (KHTML, like Gecko) Chrome/127.0.0.0 Safari/537.36","Macintosh","OS X","10_15_7","https://wvbvqp7xwd.cognition.run/","en-US,en;q=0.9","null","null","","","","","","","Trend-Bar-Shade.png","","","",""
"","","","Chrome","127.0.0.0","","","","","","","html-button-response","19","191434","0.0-19.0","97","1","2024-07-29 18:33:28","b0e02d76891de4098917a4775b26ae70","38.124.64.204","Mozilla/5.0 (Macintosh; Intel Mac OS X 10_15_7) AppleWebKit/537.36 (KHTML, like Gecko) Chrome/127.0.0.0 Safari/537.36","Macintosh","OS X","10_15_7","https://wvbvqp7xwd.cognition.run/","en-US,en;q=0.9","5362","0","","","","","","","<img src=""Trend-Bar-Shade-Blur.png"" style=""max-width:80%; margin:10px;""><br>The employee number of Brunswick investment banking increased from 2014 to 2017","","","",""
"","","","Chrome","127.0.0.0","","","","","","","html-button-response","20","193941","0.0-20.0","97","1","2024-07-29 18:33:28","b0e02d76891de4098917a4775b26ae70","38.124.64.204","Mozilla/5.0 (Macintosh; Intel Mac OS X 10_15_7) AppleWebKit/537.36 (KHTML, like Gecko) Chrome/127.0.0.0 Safari/537.36","Macintosh","OS X","10_15_7","https://wvbvqp7xwd.cognition.run/","en-US,en;q=0.9","2505","1","","","","","","","<img src=""Trend-Bar-Shade-Blur.png"" style=""max-width:80%; margin:10px;""><br>The alchol consumption in UK has been droping since 2010","","","",""
"","","","Chrome","127.0.0.0","","","","","","","image-keyboard-response","21","213945","0.0-21.0","97","1","2024-07-29 18:33:28","b0e02d76891de4098917a4775b26ae70","38.124.64.204","Mozilla/5.0 (Macintosh; Intel Mac OS X 10_15_7) AppleWebKit/537.36 (KHTML, like Gecko) Chrome/127.0.0.0 Safari/537.36","Macintosh","OS X","10_15_7","https://wvbvqp7xwd.cognition.run/","en-US,en;q=0.9","null","null","","","","","","","Compare-Bar-Color.png","","","",""
"","","","Chrome","127.0.0.0","","","","","","","html-button-response","22","218861","0.0-22.0","97","1","2024-07-29 18:33:28","b0e02d76891de4098917a4775b26ae70","38.124.64.204","Mozilla/5.0 (Macintosh; Intel Mac OS X 10_15_7) AppleWebKit/537.36 (KHTML, like Gecko) Chrome/127.0.0.0 Safari/537.36","Macintosh","OS X","10_15_7","https://wvbvqp7xwd.cognition.run/","en-US,en;q=0.9","4914","0","","","","","","","<img src=""Compare-Bar-Color-Blur.png"" style=""max-width:80%; margin:10px;""><br>China is spending more energy than the U.S. in 2019","","","",""
"","","","Chrome","127.0.0.0","","","","","","","html-button-response","23","220484","0.0-23.0","97","1","2024-07-29 18:33:28","b0e02d76891de4098917a4775b26ae70","38.124.64.204","Mozilla/5.0 (Macintosh; Intel Mac OS X 10_15_7) AppleWebKit/537.36 (KHTML, like Gecko) Chrome/127.0.0.0 Safari/537.36","Macintosh","OS X","10_15_7","https://wvbvqp7xwd.cognition.run/","en-US,en;q=0.9","1619","1","","","","","","","<img src=""Compare-Bar-Color-Blur.png"" style=""max-width:80%; margin:10px;""><br>The operating profit of Roche group is higher in 2008 than in 2018.","","","",""
"","","","Chrome","127.0.0.0","","","","","","","image-keyboard-response","24","240488","0.0-24.0","97","1","2024-07-29 18:33:28","b0e02d76891de4098917a4775b26ae70","38.124.64.204","Mozilla/5.0 (Macintosh; Intel Mac OS X 10_15_7) AppleWebKit/537.36 (KHTML, like Gecko) Chrome/127.0.0.0 Safari/537.36","Macintosh","OS X","10_15_7","https://wvbvqp7xwd.cognition.run/","en-US,en;q=0.9","null","null","","","","","","","Filter-Line-Opacity.png","","","",""
"","","","Chrome","127.0.0.0","","","","","","","html-button-response","25","244872","0.0-25.0","97","1","2024-07-29 18:33:28","b0e02d76891de4098917a4775b26ae70","38.124.64.204","Mozilla/5.0 (Macintosh; Intel Mac OS X 10_15_7) AppleWebKit/537.36 (KHTML, like Gecko) Chrome/127.0.0.0 Safari/537.36","Macintosh","OS X","10_15_7","https://wvbvqp7xwd.cognition.run/","en-US,en;q=0.9","4381","1","","","","","","","<img src=""Filter-Line-Opacity-Blur.png"" style=""max-width:80%; margin:10px;""><br>The number of hospitals in the U.S. has been higher than 3500 thousands since 2014.","","","",""
"","","","Chrome","127.0.0.0","","","","","","","html-button-response","26","246879","0.0-26.0","97","1","2024-07-29 18:33:28","b0e02d76891de4098917a4775b26ae70","38.124.64.204","Mozilla/5.0 (Macintosh; Intel Mac OS X 10_15_7) AppleWebKit/537.36 (KHTML, like Gecko) Chrome/127.0.0.0 Safari/537.36","Macintosh","OS X","10_15_7","https://wvbvqp7xwd.cognition.run/","en-US,en;q=0.9","2004","1","","","","","","","<img src=""Filter-Line-Opacity-Blur.png"" style=""max-width:80%; margin:10px;""><br>Some penguins are heavier than 1000 g.","","","",""
"","","","Chrome","127.0.0.0","","","","","","","image-keyboard-response","27","266873","0.0-27.0","97","1","2024-07-29 18:33:28","b0e02d76891de4098917a4775b26ae70","38.124.64.204","Mozilla/5.0 (Macintosh; Intel Mac OS X 10_15_7) AppleWebKit/537.36 (KHTML, like Gecko) Chrome/127.0.0.0 Safari/537.36","Macintosh","OS X","10_15_7","https://wvbvqp7xwd.cognition.run/","en-US,en;q=0.9","null","null","","","","","","","Range-Line-Opacity.png","","","",""
"","","","Chrome","127.0.0.0","","","","","","","html-button-response","28","268635","0.0-28.0","97","1","2024-07-29 18:33:28","b0e02d76891de4098917a4775b26ae70","38.124.64.204","Mozilla/5.0 (Macintosh; Intel Mac OS X 10_15_7) AppleWebKit/537.36 (KHTML, like Gecko) Chrome/127.0.0.0 Safari/537.36","Macintosh","OS X","10_15_7","https://wvbvqp7xwd.cognition.run/","en-US,en;q=0.9","1759","0","","","","","","","<img src=""Range-Line-Opacity-Blur.png"" style=""max-width:80%; margin:10px;""><br>Since 2014, the unit sales are between 2 and 3 million.","","","",""
"","","","Chrome","127.0.0.0","","","","","","","html-button-response","29","273773","0.0-29.0","97","1","2024-07-29 18:33:28","b0e02d76891de4098917a4775b26ae70","38.124.64.204","Mozilla/5.0 (Macintosh; Intel Mac OS X 10_15_7) AppleWebKit/537.36 (KHTML, like Gecko) Chrome/127.0.0.0 Safari/537.36","Macintosh","OS X","10_15_7","https://wvbvqp7xwd.cognition.run/","en-US,en;q=0.9","5138","0","","","","","","","<img src=""Range-Line-Opacity-Blur.png"" style=""max-width:80%; margin:10px;""><br>Most countries have less than 10000 income.","","","",""
"","","","Chrome","127.0.0.0","","","","","","","image-keyboard-response","30","293772","0.0-30.0","97","1","2024-07-29 18:33:28","b0e02d76891de4098917a4775b26ae70","38.124.64.204","Mozilla/5.0 (Macintosh; Intel Mac OS X 10_15_7) AppleWebKit/537.36 (KHTML, like Gecko) Chrome/127.0.0.0 Safari/537.36","Macintosh","OS X","10_15_7","https://wvbvqp7xwd.cognition.run/","en-US,en;q=0.9","null","null","","","","","","","RetrieveValue-Line-Opacity.png","","","",""
"","","","Chrome","127.0.0.0","","","","","","","html-button-response","31","296620","0.0-31.0","97","1","2024-07-29 18:33:28","b0e02d76891de4098917a4775b26ae70","38.124.64.204","Mozilla/5.0 (Macintosh; Intel Mac OS X 10_15_7) AppleWebKit/537.36 (KHTML, like Gecko) Chrome/127.0.0.0 Safari/537.36","Macintosh","OS X","10_15_7","https://wvbvqp7xwd.cognition.run/","en-US,en;q=0.9","2844","0","","","","","","","<img src=""RetrieveValue-Line-Opacity-Blur.png"" style=""max-width:80%; margin:10px;""><br>In 2007, Waste Management operating value is around 13000 million dollars","","","",""
"","","","Chrome","127.0.0.0","","","","","","","html-button-response","32","303150","0.0-32.0","97","1","2024-07-29 18:33:28","b0e02d76891de4098917a4775b26ae70","38.124.64.204","Mozilla/5.0 (Macintosh; Intel Mac OS X 10_15_7) AppleWebKit/537.36 (KHTML, like Gecko) Chrome/127.0.0.0 Safari/537.36","Macintosh","OS X","10_15_7","https://wvbvqp7xwd.cognition.run/","en-US,en;q=0.9","6527","1","","","","","","","<img src=""RetrieveValue-Line-Opacity-Blur.png"" style=""max-width:80%; margin:10px;""><br>Car A has about 300 horsepower and runs 30 miles per gallon.","","","",""
"","","","Chrome","127.0.0.0","","","","","","","image-keyboard-response","33","323154","0.0-33.0","97","1","2024-07-29 18:33:28","b0e02d76891de4098917a4775b26ae70","38.124.64.204","Mozilla/5.0 (Macintosh; Intel Mac OS X 10_15_7) AppleWebKit/537.36 (KHTML, like Gecko) Chrome/127.0.0.0 Safari/537.36","Macintosh","OS X","10_15_7","https://wvbvqp7xwd.cognition.run/","en-US,en;q=0.9","null","null","","","","","","","Trend-Line-Opacity.png","","","",""
"","","","Chrome","127.0.0.0","","","","","","","html-button-response","34","327016","0.0-34.0","97","1","2024-07-29 18:33:28","b0e02d76891de4098917a4775b26ae70","38.124.64.204","Mozilla/5.0 (Macintosh; Intel Mac OS X 10_15_7) AppleWebKit/537.36 (KHTML, like Gecko) Chrome/127.0.0.0 Safari/537.36","Macintosh","OS X","10_15_7","https://wvbvqp7xwd.cognition.run/","en-US,en;q=0.9","3859","1","","","","","","","<img src=""Trend-Line-Opacity-Blur.png"" style=""max-width:80%; margin:10px;""><br>The alcohol consumption in UK has been increasing since 2010.","","","",""
"","","","Chrome","127.0.0.0","","","","","","","html-button-response","35","331125","0.0-35.0","97","1","2024-07-29 18:33:28","b0e02d76891de4098917a4775b26ae70","38.124.64.204","Mozilla/5.0 (Macintosh; Intel Mac OS X 10_15_7) AppleWebKit/537.36 (KHTML, like Gecko) Chrome/127.0.0.0 Safari/537.36","Macintosh","OS X","10_15_7","https://wvbvqp7xwd.cognition.run/","en-US,en;q=0.9","4105","1","","","","","","","<img src=""Trend-Line-Opacity-Blur.png"" style=""max-width:80%; margin:10px;""><br>The rotten tomatoes rating is not related to IMDB rating.","","","",""
"","","","Chrome","127.0.0.0","","","","","","","image-keyboard-response","36","351129","0.0-36.0","97","1","2024-07-29 18:33:28","b0e02d76891de4098917a4775b26ae70","38.124.64.204","Mozilla/5.0 (Macintosh; Intel Mac OS X 10_15_7) AppleWebKit/537.36 (KHTML, like Gecko) Chrome/127.0.0.0 Safari/537.36","Macintosh","OS X","10_15_7","https://wvbvqp7xwd.cognition.run/","en-US,en;q=0.9","null","null","","","","","","","Compare-Line-Text.png","","","",""
"","","","Chrome","127.0.0.0","","","","","","","html-button-response","37","355920","0.0-37.0","97","1","2024-07-29 18:33:28","b0e02d76891de4098917a4775b26ae70","38.124.64.204","Mozilla/5.0 (Macintosh; Intel Mac OS X 10_15_7) AppleWebKit/537.36 (KHTML, like Gecko) Chrome/127.0.0.0 Safari/537.36","Macintosh","OS X","10_15_7","https://wvbvqp7xwd.cognition.run/","en-US,en;q=0.9","4787","1","","","","","","","<img src=""Compare-Line-Text-Blur.png"" style=""max-width:80%; margin:10px;""><br>The operating profit of Roche group is higher in 2008 than in 2018.","","","",""
"","","","Chrome","127.0.0.0","","","","","","","html-button-response","38","358585","0.0-38.0","97","1","2024-07-29 18:33:28","b0e02d76891de4098917a4775b26ae70","38.124.64.204","Mozilla/5.0 (Macintosh; Intel Mac OS X 10_15_7) AppleWebKit/537.36 (KHTML, like Gecko) Chrome/127.0.0.0 Safari/537.36","Macintosh","OS X","10_15_7","https://wvbvqp7xwd.cognition.run/","en-US,en;q=0.9","2663","0","","","","","","","<img src=""Compare-Line-Text-Blur.png"" style=""max-width:80%; margin:10px;""><br>Penguin A has smaller mass and shorter beak than penguin B.","","","",""
"","","","Chrome","127.0.0.0","","","","","","","image-keyboard-response","39","378586","0.0-39.0","97","1","2024-07-29 18:33:28","b0e02d76891de4098917a4775b26ae70","38.124.64.204","Mozilla/5.0 (Macintosh; Intel Mac OS X 10_15_7) AppleWebKit/537.36 (KHTML, like Gecko) Chrome/127.0.0.0 Safari/537.36","Macintosh","OS X","10_15_7","https://wvbvqp7xwd.cognition.run/","en-US,en;q=0.9","null","null","","","","","","","Filter-Scatter-Color.png","","","",""
"","","","Chrome","127.0.0.0","","","","","","","html-button-response","40","380713","0.0-40.0","97","1","2024-07-29 18:33:28","b0e02d76891de4098917a4775b26ae70","38.124.64.204","Mozilla/5.0 (Macintosh; Intel Mac OS X 10_15_7) AppleWebKit/537.36 (KHTML, like Gecko) Chrome/127.0.0.0 Safari/537.36","Macintosh","OS X","10_15_7","https://wvbvqp7xwd.cognition.run/","en-US,en;q=0.9","2122","1","","","","","","","<img src=""Filter-Scatter-Color-Blur.png"" style=""max-width:80%; margin:10px;""><br>Some penguins are heavier than 5000 g","","","",""
"","","","Chrome","127.0.0.0","","","","","","","html-button-response","41","383308","0.0-41.0","97","1","2024-07-29 18:33:28","b0e02d76891de4098917a4775b26ae70","38.124.64.204","Mozilla/5.0 (Macintosh; Intel Mac OS X 10_15_7) AppleWebKit/537.36 (KHTML, like Gecko) Chrome/127.0.0.0 Safari/537.36","Macintosh","OS X","10_15_7","https://wvbvqp7xwd.cognition.run/","en-US,en;q=0.9","2593","0","","","","","","","<img src=""Filter-Scatter-Color-Blur.png"" style=""max-width:80%; margin:10px;""><br>The number of mobile customers in UK drops below 30 million from 2018 to 2019.","","","",""
"","","","Chrome","127.0.0.0","","","","","","","image-keyboard-response","42","403312","0.0-42.0","97","1","2024-07-29 18:33:28","b0e02d76891de4098917a4775b26ae70","38.124.64.204","Mozilla/5.0 (Macintosh; Intel Mac OS X 10_15_7) AppleWebKit/537.36 (KHTML, like Gecko) Chrome/127.0.0.0 Safari/537.36","Macintosh","OS X","10_15_7","https://wvbvqp7xwd.cognition.run/","en-US,en;q=0.9","null","null","","","","","","","Range-Scatter-Shade.png","","","",""
"","","","Chrome","127.0.0.0","","","","","","","html-button-response","43","410844","0.0-43.0","97","1","2024-07-29 18:33:28","b0e02d76891de4098917a4775b26ae70","38.124.64.204","Mozilla/5.0 (Macintosh; Intel Mac OS X 10_15_7) AppleWebKit/537.36 (KHTML, like Gecko) Chrome/127.0.0.0 Safari/537.36","Macintosh","OS X","10_15_7","https://wvbvqp7xwd.cognition.run/","en-US,en;q=0.9","7528","0","","","","","","","<img src=""Range-Scatter-Shade-Blur.png"" style=""max-width:80%; margin:10px;""><br>Most countries have less than 50000 income","","","",""
"","","","Chrome","127.0.0.0","","","","","","","html-button-response","44","413802","0.0-44.0","97","1","2024-07-29 18:33:28","b0e02d76891de4098917a4775b26ae70","38.124.64.204","Mozilla/5.0 (Macintosh; Intel Mac OS X 10_15_7) AppleWebKit/537.36 (KHTML, like Gecko) Chrome/127.0.0.0 Safari/537.36","Macintosh","OS X","10_15_7","https://wvbvqp7xwd.cognition.run/","en-US,en;q=0.9","2955","1","","","","","","","<img src=""Range-Scatter-Shade-Blur.png"" style=""max-width:80%; margin:10px;""><br>People from most Asian countries spent 50 to 70 hours on smartphones.","","","",""
"","","","Chrome","127.0.0.0","","","","","","","image-keyboard-response","45","433807","0.0-45.0","97","1","2024-07-29 18:33:28","b0e02d76891de4098917a4775b26ae70","38.124.64.204","Mozilla/5.0 (Macintosh; Intel Mac OS X 10_15_7) AppleWebKit/537.36 (KHTML, like Gecko) Chrome/127.0.0.0 Safari/537.36","Macintosh","OS X","10_15_7","https://wvbvqp7xwd.cognition.run/","en-US,en;q=0.9","null","null","","","","","","","RetrieveValue-Scatter-Text.png","","","",""
"","","","Chrome","127.0.0.0","","","","","","","html-button-response","46","437298","0.0-46.0","97","1","2024-07-29 18:33:28","b0e02d76891de4098917a4775b26ae70","38.124.64.204","Mozilla/5.0 (Macintosh; Intel Mac OS X 10_15_7) AppleWebKit/537.36 (KHTML, like Gecko) Chrome/127.0.0.0 Safari/537.36","Macintosh","OS X","10_15_7","https://wvbvqp7xwd.cognition.run/","en-US,en;q=0.9","3487","1","","","","","","","<img src=""RetrieveValue-Scatter-Text-Blur.png"" style=""max-width:80%; margin:10px;""><br>Car A has about 300 horsepower and runs 30 miles per gallon.","","","",""
"","","","Chrome","127.0.0.0","","","","","","","html-button-response","47","441642","0.0-47.0","97","1","2024-07-29 18:33:28","b0e02d76891de4098917a4775b26ae70","38.124.64.204","Mozilla/5.0 (Macintosh; Intel Mac OS X 10_15_7) AppleWebKit/537.36 (KHTML, like Gecko) Chrome/127.0.0.0 Safari/537.36","Macintosh","OS X","10_15_7","https://wvbvqp7xwd.cognition.run/","en-US,en;q=0.9","4340","1","","","","","","","<img src=""RetrieveValue-Scatter-Text-Blur.png"" style=""max-width:80%; margin:10px;""><br>In 2016, the national debt of Ireland reached the highest.","","","",""
"","","","Chrome","127.0.0.0","","","","","","","image-keyboard-response","48","461646","0.0-48.0","97","1","2024-07-29 18:33:28","b0e02d76891de4098917a4775b26ae70","38.124.64.204","Mozilla/5.0 (Macintosh; Intel Mac OS X 10_15_7) AppleWebKit/537.36 (KHTML, like Gecko) Chrome/127.0.0.0 Safari/537.36","Macintosh","OS X","10_15_7","https://wvbvqp7xwd.cognition.run/","en-US,en;q=0.9","null","null","","","","","","","Trend-Scatter-Text.png","","","",""
"","","","Chrome","127.0.0.0","","","","","","","html-button-response","49","463855","0.0-49.0","97","1","2024-07-29 18:33:28","b0e02d76891de4098917a4775b26ae70","38.124.64.204","Mozilla/5.0 (Macintosh; Intel Mac OS X 10_15_7) AppleWebKit/537.36 (KHTML, like Gecko) Chrome/127.0.0.0 Safari/537.36","Macintosh","OS X","10_15_7","https://wvbvqp7xwd.cognition.run/","en-US,en;q=0.9","2205","0","","","","","","","<img src=""Trend-Scatter-Text-Blur.png"" style=""max-width:80%; margin:10px;""><br>The rotten tomatoes rating is related to IMDB rating","","","",""
"","","","Chrome","127.0.0.0","","","","","","","html-button-response","50","469721","0.0-50.0","97","1","2024-07-29 18:33:28","b0e02d76891de4098917a4775b26ae70","38.124.64.204","Mozilla/5.0 (Macintosh; Intel Mac OS X 10_15_7) AppleWebKit/537.36 (KHTML, like Gecko) Chrome/127.0.0.0 Safari/537.36","Macintosh","OS X","10_15_7","https://wvbvqp7xwd.cognition.run/","en-US,en;q=0.9","5864","1","","","","","","","<img src=""Trend-Scatter-Text-Blur.png"" style=""max-width:80%; margin:10px;""><br>The employee number of Brunswick investment banking decreased from 2014 to 2017.","","","",""
"","","","Chrome","127.0.0.0","","","","","","","image-keyboard-response","51","489725","0.0-51.0","97","1","2024-07-29 18:33:28","b0e02d76891de4098917a4775b26ae70","38.124.64.204","Mozilla/5.0 (Macintosh; Intel Mac OS X 10_15_7) AppleWebKit/537.36 (KHTML, like Gecko) Chrome/127.0.0.0 Safari/537.36","Macintosh","OS X","10_15_7","https://wvbvqp7xwd.cognition.run/","en-US,en;q=0.9","null","null","","","","","","","Compare-Scatter-Color.png","","","",""
"","","","Chrome","127.0.0.0","","","","","","","html-button-response","52","495493","0.0-52.0","97","1","2024-07-29 18:33:28","b0e02d76891de4098917a4775b26ae70","38.124.64.204","Mozilla/5.0 (Macintosh; Intel Mac OS X 10_15_7) AppleWebKit/537.36 (KHTML, like Gecko) Chrome/127.0.0.0 Safari/537.36","Macintosh","OS X","10_15_7","https://wvbvqp7xwd.cognition.run/","en-US,en;q=0.9","5763","1","","","","","","","<img src=""Compare-Scatter-Color-Blur.png"" style=""max-width:80%; margin:10px;""><br>Penguin A has smaller mass and shorter beak than penguin B.","","","",""
"","","","Chrome","127.0.0.0","","","","","","","html-button-response","53","498696","0.0-53.0","97","1","2024-07-29 18:33:28","b0e02d76891de4098917a4775b26ae70","38.124.64.204","Mozilla/5.0 (Macintosh; Intel Mac OS X 10_15_7) AppleWebKit/537.36 (KHTML, like Gecko) Chrome/127.0.0.0 Safari/537.36","Macintosh","OS X","10_15_7","https://wvbvqp7xwd.cognition.run/","en-US,en;q=0.9","3199","0","","","","","","","<img src=""Compare-Scatter-Color-Blur.png"" style=""max-width:80%; margin:10px;""><br>China is spending more energy than the U.S. in 2019","","","",""
"","","","Chrome","127.0.0.0","","","","","","","survey-multi-choice","54","501799","0.0-54.0","97","1","2024-07-29 18:33:28","b0e02d76891de4098917a4775b26ae70","38.124.64.204","Mozilla/5.0 (Macintosh; Intel Mac OS X 10_15_7) AppleWebKit/537.36 (KHTML, like Gecko) Chrome/127.0.0.0 Safari/537.36","Macintosh","OS X","10_15_7","https://wvbvqp7xwd.cognition.run/","en-US,en;q=0.9","3094","{""Q0"":""Female""}","","","","","","","","[0]","","",""
"","","","Chrome","127.0.0.0","","","","","","","free-sort","55","535298","0.0-55.0","97","1","2024-07-29 18:33:28","b0e02d76891de4098917a4775b26ae70","38.124.64.204","Mozilla/5.0 (Macintosh; Intel Mac OS X 10_15_7) AppleWebKit/537.36 (KHTML, like Gecko) Chrome/127.0.0.0 Safari/537.36","Macintosh","OS X","10_15_7","https://wvbvqp7xwd.cognition.run/","en-US,en;q=0.9","33491","","","","","","","","","","[{""src"":""Sort-RetrieveValue-Bar-Color.png"",""x"":345,""y"":12},{""src"":""Sort-RetrieveValue-Bar-Line.png"",""x"":533,""y"":42},{""src"":""Sort-RetrieveValue-Bar-Mark.png"",""x"":17,""y"":0},{""src"":""Sort-RetrieveValue-Bar-Opacity.png"",""x"":1045,""y"":20},{""src"":""Sort-RetrieveValue-Bar-Text.png"",""x"":705,""y"":3}]","[{""src"":""Sort-RetrieveValue-Bar-Color.png"",""x"":1172,""y"":33},{""src"":""Sort-RetrieveValue-Bar-Opacity.png"",""x"":930,""y"":11},{""src"":""Sort-RetrieveValue-Bar-Line.png"",""x"":769,""y"":26},{""src"":""Sort-RetrieveValue-Bar-Text.png"",""x"":351,""y"":2},{""src"":""Sort-RetrieveValue-Bar-Mark.png"",""x"":52,""y"":67},{""src"":""Sort-RetrieveValue-Bar-Text.png"",""x"":282,""y"":43},{""src"":""Sort-RetrieveValue-Bar-Line.png"",""x"":523,""y"":42},{""src"":""Sort-RetrieveValue-Bar-Opacity.png"",""x"":790,""y"":19},{""src"":""Sort-RetrieveValue-Bar-Color.png"",""x"":1038,""y"":31}]","[{""src"":""Sort-RetrieveValue-Bar-Color.png"",""x"":1038,""y"":30},{""src"":""Sort-RetrieveValue-Bar-Line.png"",""x"":523,""y"":41},{""src"":""Sort-RetrieveValue-Bar-Mark.png"",""x"":51,""y"":67},{""src"":""Sort-RetrieveValue-Bar-Opacity.png"",""x"":790,""y"":18},{""src"":""Sort-RetrieveValue-Bar-Text.png"",""x"":281,""y"":42}]"
"","","","Chrome","127.0.0.0","","","","","","","free-sort","56","552888","0.0-56.0","97","1","2024-07-29 18:33:28","b0e02d76891de4098917a4775b26ae70","38.124.64.204","Mozilla/5.0 (Macintosh; Intel Mac OS X 10_15_7) AppleWebKit/537.36 (KHTML, like Gecko) Chrome/127.0.0.0 Safari/537.36","Macintosh","OS X","10_15_7","https://wvbvqp7xwd.cognition.run/","en-US,en;q=0.9","17587","","","","","","","","","","[{""src"":""Sort-Filter-Line-Bound.png"",""x"":480,""y"":27},{""src"":""Sort-Filter-Line-Color.png"",""x"":430,""y"":28},{""src"":""Sort-Filter-Line-Line.png"",""x"":976,""y"":17},{""src"":""Sort-Filter-Line-Opacity.png"",""x"":372,""y"":7},{""src"":""Sort-Filter-Line-Shade.png"",""x"":1015,""y"":40}]","[{""src"":""Sort-Filter-Line-Opacity.png"",""x"":211,""y"":-8},{""src"":""Sort-Filter-Line-Color.png"",""x"":689,""y"":20},{""src"":""Sort-Filter-Line-Bound.png"",""x"":119,""y"":-11},{""src"":""Sort-Filter-Line-Opacity.png"",""x"":369,""y"":-8},{""src"":""Sort-Filter-Line-Bound.png"",""x"":119,""y"":6},{""src"":""Sort-Filter-Line-Color.png"",""x"":597,""y"":19},{""src"":""Sort-Filter-Line-Shade.png"",""x"":485,""y"":33},{""src"":""Sort-Filter-Line-Color.png"",""x"":1145,""y"":35},{""src"":""Sort-Filter-Line-Line.png"",""x"":565,""y"":12},{""src"":""Sort-Filter-Line-Shade.png"",""x"":803,""y"":16}]","[{""src"":""Sort-Filter-Line-Bound.png"",""x"":119,""y"":6},{""src"":""Sort-Filter-Line-Color.png"",""x"":1145,""y"":34},{""src"":""Sort-Filter-Line-Line.png"",""x"":564,""y"":12},{""src"":""Sort-Filter-Line-Opacity.png"",""x"":368,""y"":-8},{""src"":""Sort-Filter-Line-Shade.png"",""x"":802,""y"":15}]"
"","","","Chrome","127.0.0.0","","","","","","","free-sort","57","571056","0.0-57.0","97","1","2024-07-29 18:33:28","b0e02d76891de4098917a4775b26ae70","38.124.64.204","Mozilla/5.0 (Macintosh; Intel Mac OS X 10_15_7) AppleWebKit/537.36 (KHTML, like Gecko) Chrome/127.0.0.0 Safari/537.36","Macintosh","OS X","10_15_7","https://wvbvqp7xwd.cognition.run/","en-US,en;q=0.9","18164","","","","","","","","","","[{""src"":""Sort-Trend-Scatter-Color.png"",""x"":28,""y"":18},{""src"":""Sort-Trend-Scatter-Line.png"",""x"":1165,""y"":15},{""src"":""Sort-Trend-Scatter-Mark.png"",""x"":127,""y"":18},{""src"":""Sort-Trend-Scatter-Opacity.png"",""x"":1009,""y"":16},{""src"":""Sort-Trend-Scatter-Text.png"",""x"":1167,""y"":9},{""src"":""Sort-Trend-Scatter-Bound.png"",""x"":341,""y"":15},{""src"":""Sort-Trend-Scatter-Shade.png"",""x"":2,""y"":27}]","[{""src"":""Sort-Trend-Scatter-Shade.png"",""x"":798,""y"":16},{""src"":""Sort-Trend-Scatter-Text.png"",""x"":564,""y"":-13},{""src"":""Sort-Trend-Scatter-Line.png"",""x"":1144,""y"":6},{""src"":""Sort-Trend-Scatter-Opacity.png"",""x"":625,""y"":15},{""src"":""Sort-Trend-Scatter-Shade.png"",""x"":928,""y"":22},{""src"":""Sort-Trend-Scatter-Opacity.png"",""x"":150,""y"":-5},{""src"":""Sort-Trend-Scatter-Text.png"",""x"":699,""y"":12},{""src"":""Sort-Trend-Scatter-Bound.png"",""x"":467,""y"":15},{""src"":""Sort-Trend-Scatter-Opacity.png"",""x"":275,""y"":-2}]","[{""src"":""Sort-Trend-Scatter-Color.png"",""x"":28,""y"":18},{""src"":""Sort-Trend-Scatter-Line.png"",""x"":1144,""y"":5},{""src"":""Sort-Trend-Scatter-Mark.png"",""x"":127,""y"":18},{""src"":""Sort-Trend-Scatter-Opacity.png"",""x"":275,""y"":-2},{""src"":""Sort-Trend-Scatter-Text.png"",""x"":698,""y"":11},{""src"":""Sort-Trend-Scatter-Bound.png"",""x"":466,""y"":15},{""src"":""Sort-Trend-Scatter-Shade.png"",""x"":928,""y"":22}]"
"","","","Chrome","127.0.0.0","","","","","","","html-button-response","58","574189","0.0-58.0","97","1","2024-07-29 18:33:28","b0e02d76891de4098917a4775b26ae70","38.124.64.204","Mozilla/5.0 (Macintosh; Intel Mac OS X 10_15_7) AppleWebKit/537.36 (KHTML, like Gecko) Chrome/127.0.0.0 Safari/537.36","Macintosh","OS X","10_15_7","https://wvbvqp7xwd.cognition.run/","en-US,en;q=0.9","3128","0","","","","","","","<p> Thanks for your participation! The prolific code is <b>CVE7UWMV</b></p> Please copy and paste the code before you exit.","","","",""
